choice,value,subject,trial,rt,fixations,fix_times
3,"[4.0, 2.0, 3.0]",21,13,8186,"[1, 3, 2, 1, 3, 1, 3, 2, 3, 2, 3]","[358, 777, 338, 559, 399, 358, 258, 1913, 1096, 299, 938]"
1,"[8.0, 6.0, 3.0]",16,73,14185,"[1, 3, 2, 1, 3, 2, 1]","[2553, 516, 460, 8750, 458, 420, 518]"
3,"[1.0, 3.0, 7.0]",1,89,788,"[2, 3]","[119, 418]"
2,"[6.0, 5.0, 8.0]",16,67,11982,"[1, 3, 2, 3, 1, 2, 3, 1, 2, 1, 2]","[558, 837, 1773, 658, 1118, 2811, 1036, 379, 279, 1435, 399]"
1,"[4.0, 1.0, 3.0]",10,85,1751,"[2, 1, 3, 1]","[339, 618, 278, 100]"
2,"[1.0, 7.0, 3.0]",1,22,1084,"[2, 3, 1, 2]","[159, 219, 249, 158]"
2,"[5.0, 9.0, 6.0]",24,31,2510,"[2, 3, 1, 2, 3, 2]","[437, 200, 418, 516, 239, 300]"
3,"[2.0, 1.0, 3.0]",6,41,1972,"[2, 1, 3]","[438, 257, 898]"
1,"[7.0, 1.0, 5.0]",19,26,721,"[3, 1]","[158, 259]"
2,"[4.0, 3.0, 2.0]",13,65,2624,"[2, 3, 1, 2, 1, 3, 2]","[537, 240, 238, 161, 257, 240, 339]"
3,"[3.0, 4.0, 6.0]",28,39,6250,"[1, 3, 2, 1, 3, 1, 2, 3, 2, 3, 1]","[377, 417, 478, 160, 599, 378, 695, 439, 679, 879, 160]"
3,"[3.0, 6.0, 5.0]",16,66,9105,"[2, 3, 1, 3, 2, 3, 2, 1, 3]","[418, 439, 1635, 1416, 2093, 1574, 458, 319, 179]"
2,"[7.0, 5.0, 3.0]",25,17,10275,"[2, 1, 2, 3, 2, 1, 2, 3, 2, 3, 2]","[518, 456, 458, 1075, 559, 2292, 678, 1216, 1515, 797, 139]"
2,"[6.0, 10.0, 7.0]",26,97,796,[2],[577]
3,"[2.0, 5.0, 10.0]",13,88,2001,"[1, 3, 2, 1, 3]","[179, 578, 299, 419, 62]"
1,"[10.0, 8.0, 2.0]",22,55,1039,"[1, 3]","[418, 320]"
2,"[4.0, 1.0, 7.0]",25,50,3902,"[2, 1, 3, 2, 1, 2]","[598, 359, 458, 541, 618, 916]"
2,"[3.0, 4.0, 5.0]",3,13,2511,"[2, 1, 3, 2]","[337, 459, 518, 817]"
1,"[4.0, 2.0, 3.0]",17,32,2154,"[1, 3, 2, 1, 3]","[39, 239, 439, 332, 140]"
2,"[3.0, 6.0, 2.0]",6,3,3624,"[2, 1, 3, 2, 3, 2]","[198, 359, 278, 1276, 478, 499]"
1,"[3.0, 5.0, 2.0]",2,40,2004,"[1, 3, 2, 1]","[319, 418, 379, 458]"
3,"[4.0, 2.0, 10.0]",17,81,720,[3],[400]
3,"[4.0, 2.0, 5.0]",12,15,1002,"[2, 3, 1, 3]","[139, 176, 200, 60]"
3,"[3.0, 4.0, 8.0]",9,83,961,"[3, 1]","[299, 201]"
3,"[1.0, 2.0, 4.0]",19,86,1161,"[3, 1, 2]","[338, 381, 101]"
2,"[7.0, 8.0, 2.0]",26,12,2357,"[2, 3, 1, 2]","[239, 298, 338, 1137]"
3,"[8.0, 1.0, 4.0]",11,19,2105,"[2, 1, 3, 1, 2]","[159, 120, 379, 379, 438]"
2,"[2.0, 6.0, 4.0]",2,14,1741,"[2, 1, 2, 3, 1]","[199, 338, 358, 359, 79]"
1,"[9.0, 6.0, 3.0]",22,49,1402,"[2, 1, 3, 2]","[179, 338, 259, 181]"
1,"[5.0, 3.0, 2.0]",2,65,2449,"[2, 1, 2, 1, 3, 2]","[199, 258, 279, 558, 259, 459]"
1,"[7.0, 1.0, 3.0]",11,93,1539,"[1, 3, 2, 1]","[277, 340, 380, 179]"
1,"[4.0, 1.0, 5.0]",8,64,4444,"[2, 1, 3, 2, 1, 2, 1]","[79, 200, 378, 698, 1157, 558, 299]"
2,"[9.0, 8.0, 5.0]",28,28,2304,"[1, 2, 3, 2, 1, 2]","[437, 259, 299, 300, 439, 100]"
1,"[6.0, 5.0, 1.0]",6,62,5244,"[2, 1, 3, 1, 3, 2, 1]","[298, 579, 897, 1296, 399, 319, 897]"
3,"[3.0, 1.0, 2.0]",3,51,3253,"[3, 1, 3, 2]","[20, 380, 176, 997]"
2,"[1.0, 5.0, 3.0]",21,38,1643,"[2, 1, 3, 2]","[298, 259, 498, 259]"
1,"[7.0, 2.0, 1.0]",11,41,698,"[2, 1]","[139, 280]"
1,"[9.0, 4.0, 5.0]",20,92,1063,"[1, 2]","[182, 61]"
1,"[6.0, 2.0, 7.0]",13,70,2181,"[2, 1, 3, 1, 3, 1]","[159, 239, 200, 202, 200, 438]"
2,"[1.0, 7.0, 4.0]",26,36,3405,"[1, 2, 3, 1, 2]","[357, 227, 498, 1075, 919]"
3,"[1.0, 4.0, 2.0]",26,37,3226,"[1, 3, 2, 1, 3]","[278, 299, 360, 354, 937]"
2,"[2.0, 5.0, 1.0]",10,77,1490,"[1, 3, 2]","[160, 459, 379]"
2,"[2.0, 3.0, 1.0]",1,14,1437,"[3, 2, 1, 3]","[338, 159, 399, 261]"
2,"[5.0, 9.0, 2.0]",7,14,7192,"[1, 3, 2, 3, 2]","[1056, 948, 2691, 1452, 499]"
3,"[4.0, 1.0, 5.0]",21,42,5017,"[2, 1, 3, 2, 3, 1, 2, 3]","[159, 239, 498, 559, 419, 1574, 518, 538]"
3,"[1.0, 7.0, 3.0]",4,93,961,"[2, 3, 1]","[239, 239, 181]"
2,"[8.0, 6.0, 7.0]",25,16,8263,"[2, 1, 3, 2, 1, 2]","[2313, 937, 797, 3548, 159, 99]"
3,"[2.0, 6.0, 7.0]",29,52,1634,"[1, 2, 1, 3]","[20, 139, 279, 518]"
1,"[4.0, 2.0, 6.0]",23,3,4358,"[1, 3, 2, 1]","[517, 698, 421, 2391]"
1,"[9.0, 5.0, 4.0]",11,23,888,[1],[298]
1,"[10.0, 5.0, 8.0]",22,46,1096,"[1, 3]","[577, 200]"
3,"[3.0, 4.0, 9.0]",18,28,2270,"[2, 1, 3, 2, 3]","[739, 317, 438, 339, 40]"
1,"[10.0, 2.0, 3.0]",20,16,1378,"[2, 1, 3, 1]","[179, 42, 213, 189]"
1,"[7.0, 3.0, 4.0]",9,97,886,"[2, 1, 3]","[140, 379, 40]"
2,"[3.0, 7.0, 6.0]",9,73,809,"[3, 1, 2]","[120, 159, 220]"
2,"[1.0, 9.0, 2.0]",11,73,1282,"[2, 1, 3, 2]","[378, 239, 159, 140]"
1,"[2.0, 5.0, 3.0]",26,43,4046,"[2, 1, 3, 1, 3, 2, 1]","[140, 296, 298, 578, 519, 998, 619]"
2,"[1.0, 3.0, 6.0]",6,46,2994,"[2, 1, 3, 2]","[438, 380, 403, 1357]"
3,"[5.0, 2.0, 6.0]",28,8,3258,"[2, 1, 3, 1, 2, 3, 2]","[240, 517, 537, 297, 558, 558, 20]"
2,"[1.0, 8.0, 4.0]",9,42,1139,"[1, 2, 3]","[180, 338, 300]"
3,"[4.0, 1.0, 8.0]",7,45,4179,"[1, 3, 1, 2, 3]","[139, 1555, 1036, 399, 478]"
3,"[2.0, 3.0, 8.0]",5,63,874,"[3, 1]","[199, 258]"
2,"[5.0, 7.0, 1.0]",20,84,1021,"[1, 2]","[20, 324]"
3,"[1.0, 2.0, 3.0]",10,10,3059,"[1, 3, 2, 1, 3]","[239, 498, 439, 438, 957]"
3,"[2.0, 1.0, 7.0]",20,51,1511,"[1, 3, 2, 3]","[258, 206, 229, 115]"
2,"[2.0, 5.0, 1.0]",11,16,1566,"[1, 2, 3, 1]","[277, 299, 179, 338]"
2,"[2.0, 10.0, 1.0]",20,56,1653,"[2, 3, 2]","[307, 265, 415]"
3,"[4.0, 8.0, 10.0]",26,17,1343,"[2, 3, 1]","[38, 207, 190]"
2,"[5.0, 2.0, 3.0]",7,77,4602,"[2, 1, 3, 2]","[1276, 1276, 1016, 558]"
1,"[5.0, 1.0, 2.0]",2,86,1555,"[1, 3, 2]","[219, 338, 478]"
3,"[6.0, 1.0, 7.0]",1,28,1573,"[2, 3, 2, 1, 2, 1, 3]","[79, 258, 139, 120, 281, 120, 100]"
2,"[2.0, 8.0, 3.0]",20,1,2220,"[3, 2, 1]","[515, 843, 160]"
2,"[4.0, 8.0, 3.0]",18,35,1807,"[2, 1, 3, 2]","[418, 379, 319, 179]"
3,"[5.0, 3.0, 10.0]",25,59,4461,"[2, 1, 3, 2, 1, 3]","[518, 458, 577, 539, 1553, 438]"
3,"[5.0, 1.0, 10.0]",4,89,629,"[1, 3]","[90, 279]"
1,"[7.0, 5.0, 3.0]",16,51,3612,"[2, 3, 1, 2, 3, 1, 3]","[338, 408, 696, 439, 160, 757, 281]"
3,"[6.0, 2.0, 8.0]",26,91,1086,"[1, 3, 2]","[119, 418, 220]"
3,"[2.0, 4.0, 8.0]",26,56,2280,"[3, 1, 2, 3]","[299, 419, 459, 818]"
2,"[3.0, 8.0, 1.0]",9,63,1141,"[1, 3, 2]","[276, 159, 359]"
3,"[3.0, 5.0, 7.0]",16,23,4909,"[1, 3, 2, 3, 2]","[1016, 877, 578, 1356, 638]"
3,"[3.0, 4.0, 5.0]",10,47,1292,"[2, 3, 1, 3]","[338, 199, 299, 40]"
1,"[2.0, 4.0, 3.0]",27,66,1162,"[1, 2]","[518, 219]"
2,"[1.0, 6.0, 3.0]",1,45,892,"[3, 1, 3]","[220, 200, 159]"
1,"[6.0, 2.0, 3.0]",6,57,2235,"[2, 3, 1, 2, 1]","[259, 300, 518, 378, 321]"
2,"[1.0, 9.0, 5.0]",29,19,3526,"[2, 3, 1, 3, 2]","[236, 200, 939, 378, 1293]"
3,"[3.0, 7.0, 5.0]",7,70,1729,"[2, 3]","[537, 837]"
2,"[3.0, 5.0, 1.0]",14,43,2439,"[2, 1, 3, 1, 2]","[259, 339, 439, 199, 759]"
2,"[3.0, 4.0, 1.0]",4,39,890,"[1, 2]","[198, 339]"
2,"[3.0, 7.0, 1.0]",1,86,810,"[3, 1]","[219, 199]"
1,"[9.0, 3.0, 7.0]",15,89,1539,"[2, 3, 1, 2, 1]","[140, 339, 339, 299, 20]"
1,"[4.0, 1.0, 2.0]",17,84,1525,"[3, 2, 1]","[237, 59, 602]"
2,"[2.0, 4.0, 1.0]",11,37,1347,"[1, 3, 2]","[238, 157, 619]"
3,"[6.0, 2.0, 9.0]",27,84,878,"[3, 2]","[378, 200]"
2,"[3.0, 4.0, 8.0]",10,70,2031,"[1, 3, 2]","[360, 262, 1077]"
2,"[2.0, 4.0, 3.0]",3,59,1049,[1],[260]
1,"[3.0, 6.0, 1.0]",22,85,2314,"[1, 3, 2, 3, 1]","[201, 170, 511, 478, 359]"
2,"[3.0, 4.0, 2.0]",21,95,2395,"[2, 1, 3, 2, 3, 1, 2]","[120, 219, 239, 399, 359, 558, 42]"
2,"[1.0, 8.0, 5.0]",10,21,2240,"[1, 3, 2, 3]","[518, 338, 478, 439]"
2,"[2.0, 4.0, 3.0]",17,21,2053,"[3, 1, 2, 3]","[99, 395, 478, 139]"
3,"[10.0, 4.0, 9.0]",19,84,822,"[3, 1]","[279, 220]"
3,"[9.0, 2.0, 8.0]",22,26,2316,"[2, 3, 2, 1, 2, 3]","[159, 377, 259, 459, 239, 122]"
3,"[4.0, 1.0, 3.0]",14,12,1336,"[2, 3, 1, 3]","[279, 319, 299, 99]"
3,"[5.0, 1.0, 10.0]",25,98,4563,"[1, 3, 2, 1, 2, 3]","[142, 339, 1255, 598, 1079, 698]"
2,"[1.0, 9.0, 3.0]",15,14,1207,"[2, 3, 1]","[378, 379, 120]"
1,"[9.0, 3.0, 6.0]",27,78,981,"[3, 1]","[178, 459]"
1,"[7.0, 2.0, 1.0]",20,78,845,[1],[20]
3,"[1.0, 9.0, 3.0]",20,61,1688,"[3, 2, 3]","[196, 136, 115]"
3,"[1.0, 2.0, 3.0]",1,52,1231,"[2, 3, 2]","[239, 279, 479]"
3,"[2.0, 1.0, 6.0]",24,50,3637,"[1, 3, 2, 3, 1, 3]","[438, 697, 478, 458, 578, 618]"
2,"[3.0, 7.0, 1.0]",21,79,3878,"[1, 3, 2, 1, 2, 3, 2]","[219, 277, 458, 976, 678, 498, 279]"
3,"[4.0, 3.0, 2.0]",8,78,1714,"[2, 3]","[439, 916]"
2,"[1.0, 5.0, 3.0]",12,40,1445,"[3, 2, 1, 2]","[199, 379, 260, 200]"
1,"[6.0, 3.0, 2.0]",6,10,3714,"[1, 2, 3, 1, 2, 3, 1]","[160, 398, 618, 1196, 279, 240, 161]"
1,"[3.0, 6.0, 1.0]",10,81,2091,"[1, 3, 2, 1]","[160, 398, 239, 896]"
1,"[3.0, 4.0, 5.0]",2,51,3253,"[1, 3, 2, 1, 3, 1]","[298, 278, 199, 199, 798, 856]"
3,"[5.0, 8.0, 7.0]",20,41,1332,"[1, 2, 3]","[337, 185, 215]"
1,"[4.0, 1.0, 3.0]",21,54,1353,"[1, 3, 2, 1]","[200, 219, 298, 279]"
2,"[1.0, 3.0, 4.0]",21,7,5857,"[1, 3, 2, 3, 2, 3, 2]","[616, 538, 360, 1355, 1077, 1036, 80]"
1,"[3.0, 5.0, 1.0]",20,94,1009,"[2, 1]","[554, 20]"
3,"[5.0, 2.0, 8.0]",20,14,1155,"[1, 3, 1, 3]","[223, 20, 223, 229]"
3,"[4.0, 3.0, 5.0]",8,29,1461,[3],[1077]
2,"[5.0, 2.0, 3.0]",30,53,3097,"[2, 3, 1, 2, 1, 2]","[139, 378, 678, 558, 637, 160]"
3,"[8.0, 6.0, 9.0]",9,4,772,[3],[537]
2,"[4.0, 3.0, 2.0]",30,8,1187,"[2, 1, 3]","[261, 259, 358]"
3,"[8.0, 5.0, 10.0]",28,42,1560,"[2, 1, 3]","[338, 378, 537]"
3,"[1.0, 5.0, 9.0]",29,18,4526,"[2, 3, 1, 2, 3, 2, 3]","[438, 480, 478, 637, 857, 877, 241]"
2,"[2.0, 5.0, 3.0]",3,44,1464,"[1, 3, 2]","[240, 279, 39]"
3,"[2.0, 1.0, 7.0]",30,22,1204,"[1, 3]","[239, 657]"
1,"[9.0, 3.0, 1.0]",15,74,894,"[2, 1, 3]","[120, 279, 98]"
2,"[4.0, 8.0, 5.0]",18,16,4171,"[2, 1, 3, 1, 2]","[815, 339, 538, 419, 1653]"
2,"[1.0, 4.0, 3.0]",6,22,2377,"[2, 3, 1, 3, 2]","[100, 180, 358, 319, 859]"
1,"[5.0, 2.0, 4.0]",2,68,1931,"[1, 3, 2, 1]","[259, 378, 159, 678]"
1,"[7.0, 3.0, 9.0]",9,2,1099,"[2, 1]","[239, 639]"
1,"[8.0, 4.0, 5.0]",28,68,1851,"[2, 1, 3, 2, 3, 1]","[179, 219, 240, 417, 340, 20]"
1,"[6.0, 4.0, 2.0]",2,98,1041,"[2, 1, 3]","[179, 358, 221]"
3,"[1.0, 3.0, 4.0]",17,49,1581,"[1, 3, 2]","[100, 518, 259]"
1,"[4.0, 1.0, 8.0]",11,20,1199,"[1, 3, 2, 1]","[239, 199, 259, 121]"
3,"[6.0, 3.0, 5.0]",26,55,2296,"[1, 3, 1, 2, 3, 1]","[100, 198, 318, 280, 816, 143]"
1,"[8.0, 5.0, 3.0]",26,6,2487,"[1, 3, 2, 1]","[498, 558, 260, 440]"
3,"[2.0, 9.0, 6.0]",22,54,2163,"[2, 3, 1, 3]","[1035, 220, 298, 198]"
3,"[4.0, 5.0, 9.0]",9,61,648,"[2, 3]","[139, 239]"
1,"[8.0, 5.0, 3.0]",18,38,2322,"[2, 1, 3, 1]","[698, 317, 416, 539]"
1,"[5.0, 3.0, 1.0]",7,9,5286,"[2, 1, 3, 1]","[1434, 1116, 1396, 978]"
2,"[2.0, 4.0, 3.0]",8,30,1856,[2],[1556]
2,"[2.0, 4.0, 1.0]",8,76,1640,"[1, 3, 2]","[240, 279, 738]"
2,"[5.0, 8.0, 2.0]",26,84,2489,"[1, 2, 1, 3, 2]","[418, 419, 417, 279, 545]"
1,"[3.0, 2.0, 6.0]",6,13,4359,"[2, 1, 3, 1, 3, 1]","[378, 279, 597, 1196, 896, 455]"
3,"[1.0, 2.0, 5.0]",11,13,1781,"[1, 3, 2, 3]","[279, 339, 458, 60]"
2,"[3.0, 6.0, 1.0]",30,7,1874,"[2, 1, 3, 2]","[419, 373, 379, 359]"
1,"[8.0, 3.0, 5.0]",16,88,2850,"[2, 1, 3, 2, 3, 1]","[479, 558, 279, 498, 337, 239]"
3,"[3.0, 2.0, 1.0]",6,72,3616,"[2, 3, 1, 3, 1, 3]","[120, 338, 519, 619, 498, 798]"
3,"[1.0, 3.0, 2.0]",17,64,1355,"[2, 3, 1, 2]","[157, 120, 341, 20]"
3,"[4.0, 5.0, 10.0]",20,42,2032,"[2, 1, 3]","[220, 638, 464]"
3,"[1.0, 3.0, 4.0]",2,79,1443,"[3, 1, 2, 3]","[458, 179, 279, 119]"
3,"[1.0, 2.0, 4.0]",14,7,1882,"[1, 2, 3, 1]","[80, 558, 438, 319]"
2,"[6.0, 3.0, 4.0]",27,69,2136,"[1, 3, 1, 2, 3]","[259, 339, 478, 299, 299]"
1,"[5.0, 4.0, 2.0]",30,58,1460,"[3, 1, 2, 1]","[259, 319, 379, 160]"
1,"[1.0, 2.0, 3.0]",11,52,2306,"[1, 3, 2, 3, 1]","[158, 218, 659, 100, 638]"
2,"[7.0, 4.0, 1.0]",23,7,4873,"[1, 3, 2, 1, 2]","[816, 558, 1415, 1036, 579]"
2,"[5.0, 4.0, 1.0]",30,96,1525,"[1, 2, 3, 2]","[180, 478, 397, 120]"
2,"[1.0, 7.0, 4.0]",14,80,1754,"[1, 2, 3, 2]","[279, 99, 339, 359]"
1,"[7.0, 8.0, 1.0]",23,77,3558,"[1, 3, 1, 3, 2, 1]","[80, 176, 581, 359, 1076, 717]"
3,"[8.0, 7.0, 5.0]",29,50,1740,"[2, 3]","[356, 1049]"
2,"[5.0, 9.0, 3.0]",18,65,1913,"[1, 3, 2]","[397, 598, 518]"
3,"[4.0, 2.0, 8.0]",18,77,3568,"[1, 3, 2, 3, 1, 3]","[497, 399, 399, 478, 478, 897]"
3,"[6.0, 5.0, 7.0]",8,49,1820,"[2, 1, 3]","[20, 459, 859]"
3,"[1.0, 3.0, 5.0]",6,52,2541,"[2, 1, 2, 3, 2, 3]","[179, 378, 219, 339, 159, 638]"
2,"[5.0, 3.0, 2.0]",13,77,2140,"[2, 1, 3, 2]","[239, 219, 219, 1078]"
2,"[1.0, 10.0, 2.0]",4,100,1103,"[2, 1, 2]","[179, 219, 378]"
3,"[6.0, 3.0, 10.0]",28,59,1541,"[1, 3, 2, 3]","[339, 537, 239, 77]"
3,"[4.0, 6.0, 10.0]",25,67,5431,"[1, 3, 2, 1, 3]","[259, 3987, 378, 197, 182]"
2,"[3.0, 7.0, 9.0]",9,48,734,"[2, 1]","[239, 219]"
1,"[4.0, 2.0, 1.0]",11,51,1300,"[2, 1, 3, 1]","[159, 160, 259, 100]"
2,"[5.0, 3.0, 2.0]",7,99,4335,"[2, 1, 3, 1, 3, 2]","[1336, 758, 239, 418, 599, 339]"
2,"[2.0, 4.0, 5.0]",2,43,1718,"[1, 3, 2, 3]","[186, 299, 498, 239]"
2,"[4.0, 9.0, 8.0]",18,3,6438,"[2, 1, 3, 2]","[1016, 418, 238, 4425]"
3,"[4.0, 3.0, 10.0]",26,4,1793,"[2, 1, 3]","[316, 343, 803]"
3,"[2.0, 6.0, 4.0]",29,93,4583,"[2, 3, 1, 3, 2, 1, 3, 1, 3]","[239, 279, 698, 638, 836, 340, 319, 379, 199]"
2,"[1.0, 3.0, 5.0]",2,45,2442,"[2, 3, 1, 2, 3, 2]","[259, 299, 339, 359, 578, 179]"
3,"[10.0, 6.0, 9.0]",23,97,1877,"[1, 2, 3]","[299, 221, 541]"
3,"[3.0, 2.0, 6.0]",18,66,2182,"[1, 3, 2, 3]","[656, 458, 479, 259]"
2,"[4.0, 5.0, 1.0]",29,12,2500,"[1, 3, 2]","[357, 538, 1235]"
2,"[1.0, 3.0, 2.0]",19,20,2467,"[3, 1, 2]","[312, 480, 1274]"
3,"[8.0, 5.0, 9.0]",20,28,3317,"[3, 1, 2, 3, 1, 3]","[222, 259, 808, 227, 480, 247]"
1,"[9.0, 1.0, 2.0]",20,62,977,[3],[81]
1,"[4.0, 3.0, 2.0]",2,5,2993,"[2, 1, 3, 2, 1]","[418, 454, 459, 718, 398]"
2,"[2.0, 8.0, 4.0]",27,92,1244,"[1, 3]","[299, 279]"
3,"[4.0, 8.0, 9.0]",27,37,1076,"[2, 3]","[299, 498]"
2,"[1.0, 4.0, 3.0]",14,6,2215,"[1, 3, 2, 3, 1]","[398, 319, 399, 458, 279]"
1,"[5.0, 9.0, 1.0]",15,78,1458,"[2, 1, 3, 2]","[179, 458, 279, 139]"
1,"[4.0, 1.0, 2.0]",2,60,1220,"[2, 1, 3]","[219, 479, 159]"
1,"[9.0, 5.0, 2.0]",7,12,2582,"[1, 3, 2, 1]","[716, 897, 479, 61]"
3,"[7.0, 2.0, 3.0]",26,98,4376,"[3, 1, 2, 3, 1, 3, 2, 3]","[159, 317, 478, 256, 339, 917, 996, 335]"
1,"[8.0, 1.0, 2.0]",11,88,1426,"[2, 1, 3, 2]","[158, 258, 259, 379]"
1,"[7.0, 3.0, 5.0]",15,86,2195,"[2, 3, 1, 2, 1]","[218, 355, 399, 657, 162]"
3,"[4.0, 6.0, 7.0]",8,72,1046,[3],[778]
3,"[2.0, 4.0, 7.0]",22,10,2725,"[2, 1, 3, 1, 3]","[538, 439, 461, 319, 538]"
2,"[2.0, 4.0, 3.0]",3,50,1787,[2],[239]
1,"[4.0, 1.0, 2.0]",12,5,756,"[2, 1, 2]","[140, 159, 160]"
3,"[9.0, 8.0, 10.0]",18,52,2696,"[2, 1, 3]","[974, 299, 1056]"
1,"[5.0, 3.0, 2.0]",5,15,1842,"[2, 3, 1]","[517, 319, 678]"
1,"[5.0, 3.0, 8.0]",7,76,3253,"[1, 3, 1]","[797, 1733, 438]"
2,"[1.0, 3.0, 2.0]",11,9,2052,"[3, 1, 2, 3, 2]","[79, 159, 359, 478, 538]"
1,"[8.0, 7.0, 6.0]",22,100,1422,"[3, 2, 1, 2]","[199, 199, 398, 279]"
2,"[2.0, 4.0, 3.0]",4,72,1562,"[1, 2, 3]","[298, 459, 259]"
1,"[6.0, 4.0, 1.0]",29,3,3176,"[2, 1, 3, 2, 1, 3]","[176, 457, 817, 618, 538, 100]"
3,"[2.0, 6.0, 9.0]",28,21,1817,"[2, 3, 1, 3, 1]","[278, 267, 260, 422, 181]"
3,"[1.0, 7.0, 9.0]",15,92,1462,"[1, 3, 2, 3]","[239, 438, 319, 122]"
2,"[2.0, 7.0, 5.0]",24,64,7429,"[1, 3, 1, 3, 2, 1, 3, 1, 3, 2]","[278, 577, 458, 259, 696, 200, 1057, 917, 1474, 484]"
2,"[5.0, 8.0, 9.0]",20,38,2989,"[3, 2, 1, 2, 3]","[204, 180, 28, 916, 261]"
1,"[2.0, 1.0, 5.0]",13,60,1409,"[1, 3, 2, 1]","[278, 319, 240, 141]"
2,"[5.0, 4.0, 2.0]",6,48,2294,"[1, 2, 3, 2, 1, 2]","[359, 240, 658, 179, 139, 179]"
2,"[1.0, 8.0, 4.0]",24,83,1543,"[2, 3, 1, 2]","[438, 319, 299, 218]"
3,"[2.0, 1.0, 5.0]",12,46,1086,"[3, 2, 1, 3]","[319, 159, 79, 20]"
2,"[2.0, 8.0, 1.0]",12,77,1459,"[2, 1, 3, 2]","[179, 179, 299, 438]"
2,"[2.0, 6.0, 5.0]",4,84,761,"[1, 2]","[199, 295]"
1,"[8.0, 5.0, 3.0]",28,54,1294,"[3, 2, 1]","[139, 258, 499]"
1,"[8.0, 2.0, 6.0]",5,32,1794,"[1, 3, 2]","[219, 558, 679]"
2,"[7.0, 5.0, 3.0]",21,8,3324,"[1, 3, 2, 3, 1, 3, 1, 2]","[278, 299, 179, 399, 339, 477, 439, 299]"
3,"[2.0, 6.0, 5.0]",22,88,2058,"[2, 1, 2, 3, 2]","[180, 238, 399, 439, 441]"
2,"[5.0, 8.0, 3.0]",16,3,5241,"[2, 1, 3, 2, 1, 2]","[517, 1016, 1056, 399, 678, 1117]"
1,"[3.0, 5.0, 8.0]",25,51,5322,"[1, 2, 3, 2, 1, 2, 3, 1]","[737, 519, 617, 320, 1078, 459, 897, 219]"
3,"[1.0, 2.0, 4.0]",14,63,2025,"[1, 3, 2, 3]","[319, 279, 877, 199]"
3,"[1.0, 2.0, 10.0]",24,82,880,"[1, 3]","[178, 279]"
2,"[2.0, 6.0, 5.0]",2,81,1521,"[1, 3, 2]","[258, 338, 499]"
3,"[2.0, 1.0, 7.0]",20,34,1613,"[1, 3, 2, 3]","[286, 361, 384, 155]"
2,"[7.0, 6.0, 2.0]",27,71,1499,"[2, 1]","[956, 142]"
2,"[2.0, 6.0, 1.0]",2,13,1577,"[1, 2, 3]","[336, 537, 340]"
1,"[9.0, 3.0, 4.0]",9,8,830,"[2, 1, 3]","[219, 279, 20]"
2,"[5.0, 8.0, 3.0]",5,50,1828,"[2, 1, 3, 2]","[239, 239, 418, 399]"
1,"[6.0, 5.0, 3.0]",16,92,3132,"[1, 3, 2, 1, 3]","[378, 399, 1076, 538, 361]"
3,"[6.0, 7.0, 3.0]",25,82,2518,"[2, 1, 2, 3]","[301, 898, 279, 718]"
2,"[4.0, 2.0, 1.0]",17,63,8154,"[3, 1, 2, 1, 2, 1, 2, 1]","[163, 121, 915, 777, 1075, 1215, 591, 895]"
2,"[3.0, 1.0, 2.0]",12,79,1462,"[3, 2, 1, 3, 2]","[317, 179, 320, 180, 81]"
1,"[7.0, 4.0, 1.0]",10,26,1364,"[2, 1]","[199, 837]"
3,"[4.0, 7.0, 6.0]",28,79,3049,"[2, 3, 1, 3, 2, 3]","[260, 259, 259, 157, 578, 936]"
3,"[7.0, 6.0, 8.0]",26,26,2080,"[2, 1, 3]","[290, 339, 1235]"
1,"[8.0, 4.0, 3.0]",13,78,1400,"[1, 3, 2, 3]","[398, 178, 259, 199]"
1,"[4.0, 1.0, 2.0]",2,25,1823,"[2, 3, 1, 2, 1]","[236, 299, 298, 378, 141]"
3,"[6.0, 1.0, 3.0]",23,29,2170,"[2, 3, 1]","[358, 877, 558]"
2,"[1.0, 9.0, 6.0]",27,45,933,[2],[696]
1,"[7.0, 8.0, 6.0]",24,56,2292,"[2, 1, 3]","[617, 539, 818]"
1,"[8.0, 5.0, 6.0]",29,96,1748,"[3, 1, 2, 1]","[159, 338, 519, 259]"
2,"[1.0, 10.0, 2.0]",4,12,1831,"[1, 3, 2]","[339, 518, 678]"
2,"[3.0, 4.0, 1.0]",2,22,1406,"[2, 3, 1, 2]","[338, 279, 398, 40]"
3,"[3.0, 1.0, 5.0]",4,35,2819,"[1, 3, 2, 3, 1, 3, 1]","[219, 358, 438, 339, 299, 336, 259]"
3,"[3.0, 6.0, 7.0]",13,50,3541,"[2, 1, 3, 2, 3]","[577, 438, 319, 1216, 439]"
2,"[2.0, 6.0, 1.0]",2,57,4806,"[3, 2, 1, 3, 2, 3, 2, 1, 2]","[219, 220, 279, 638, 20, 777, 498, 817, 380]"
2,"[3.0, 1.0, 2.0]",6,87,2158,"[2, 3, 1, 3, 2, 3, 2]","[140, 120, 439, 180, 219, 259, 145]"
3,"[4.0, 1.0, 5.0]",7,21,4655,"[2, 1, 3]","[1893, 1562, 816]"
2,"[2.0, 3.0, 1.0]",6,1,2858,"[3, 2, 3, 1, 2]","[159, 179, 199, 200, 1295]"
3,"[1.0, 4.0, 5.0]",21,59,2017,"[2, 1, 3, 2, 3]","[219, 379, 378, 479, 220]"
2,"[5.0, 10.0, 7.0]",7,15,13521,"[2, 1, 3, 1, 3, 1, 3, 2]","[1834, 215, 199, 657, 4665, 3192, 997, 1017]"
3,"[9.0, 4.0, 8.0]",20,96,854,"[3, 1, 3]","[138, 218, 120]"
1,"[9.0, 2.0, 7.0]",30,11,1502,"[1, 2, 1, 3]","[219, 320, 365, 199]"
2,"[4.0, 9.0, 3.0]",18,37,1507,"[1, 3, 2]","[598, 319, 299]"
3,"[3.0, 5.0, 9.0]",18,41,4008,"[1, 3, 2, 3]","[618, 614, 1076, 1296]"
2,"[1.0, 3.0, 2.0]",1,92,1246,"[3, 2, 1, 2]","[180, 179, 339, 120]"
1,"[4.0, 2.0, 5.0]",10,75,1171,"[1, 2, 3]","[358, 379, 60]"
1,"[5.0, 2.0, 1.0]",19,52,1944,"[3, 2, 1, 3, 1]","[219, 219, 502, 379, 40]"
1,"[7.0, 3.0, 2.0]",29,46,4126,"[2, 1, 3, 2, 1, 2]","[177, 319, 837, 537, 1617, 61]"
3,"[3.0, 6.0, 7.0]",25,96,6173,"[2, 1, 3, 2, 1, 3, 2, 3]","[379, 895, 398, 738, 519, 1454, 657, 538]"
2,"[1.0, 5.0, 2.0]",12,41,1050,"[2, 1, 3, 2]","[259, 119, 160, 20]"
2,"[4.0, 3.0, 1.0]",5,95,2971,"[2, 1, 3, 2, 1, 2, 1]","[320, 339, 438, 435, 240, 478, 41]"
2,"[4.0, 7.0, 3.0]",15,96,1302,"[2, 1, 3]","[319, 339, 280]"
1,"[8.0, 1.0, 6.0]",13,68,1735,"[2, 3, 1, 3, 1]","[160, 199, 140, 219, 498]"
2,"[1.0, 3.0, 4.0]",22,90,1383,"[3, 1, 2]","[199, 118, 718]"
3,"[1.0, 4.0, 2.0]",17,22,13653,"[3, 1, 3, 1, 2, 3, 1, 3, 1, 3, 1, 3, 2, 3, 1, 3]","[60, 178, 498, 259, 877, 100, 518, 260, 39, 753, 658, 658, 1056, 718, 3009, 1873]"
1,"[7.0, 3.0, 6.0]",9,30,1091,"[2, 1, 3]","[259, 238, 299]"
3,"[7.0, 2.0, 8.0]",28,13,1338,"[2, 3, 1]","[179, 518, 240]"
3,"[4.0, 5.0, 2.0]",25,26,4313,"[1, 3, 2, 1, 3]","[459, 1315, 538, 536, 1077]"
3,"[3.0, 9.0, 8.0]",19,97,732,"[3, 2]","[260, 199]"
2,"[3.0, 8.0, 7.0]",22,33,1098,"[1, 2]","[357, 438]"
1,"[5.0, 3.0, 1.0]",12,35,1246,"[3, 1, 3, 1]","[219, 299, 159, 179]"
2,"[5.0, 7.0, 2.0]",30,28,1348,"[2, 3, 1, 2]","[259, 339, 140, 239]"
3,"[1.0, 4.0, 3.0]",26,89,2058,"[1, 3, 2, 3, 1, 3]","[199, 299, 325, 279, 379, 139]"
1,"[2.0, 4.0, 3.0]",3,100,999,[2],[518]
3,"[2.0, 3.0, 4.0]",13,64,1982,"[3, 1, 3, 2, 3]","[219, 319, 300, 339, 240]"
2,"[1.0, 8.0, 4.0]",19,44,975,"[2, 1, 3]","[159, 299, 183]"
1,"[6.0, 5.0, 1.0]",23,2,6519,"[2, 3, 1, 2, 3, 2, 3, 1, 2]","[617, 359, 660, 977, 339, 758, 379, 956, 1196]"
2,"[7.0, 5.0, 2.0]",23,50,4989,"[1, 3, 1, 2]","[1013, 442, 1512, 1575]"
2,"[2.0, 9.0, 5.0]",4,71,1233,"[1, 2]","[120, 677]"
3,"[1.0, 5.0, 8.0]",29,91,1745,"[2, 3, 1, 2]","[378, 260, 458, 220]"
2,"[6.0, 3.0, 5.0]",25,48,7028,"[2, 3, 1, 2, 3, 1, 2, 3, 2]","[277, 398, 1632, 419, 219, 1973, 538, 778, 258]"
1,"[4.0, 2.0, 1.0]",4,33,1488,"[2, 1, 3, 1]","[219, 239, 535, 159]"
1,"[5.0, 2.0, 4.0]",16,1,3439,"[1, 3, 2, 1]","[498, 478, 1833, 239]"
3,"[7.0, 4.0, 10.0]",28,44,1176,"[1, 3]","[298, 599]"
2,"[3.0, 7.0, 2.0]",24,35,3211,"[1, 3, 1, 2]","[390, 540, 499, 1494]"
2,"[3.0, 5.0, 4.0]",16,42,10820,"[2, 3, 1, 3, 2, 3, 2]","[558, 1275, 1554, 480, 3249, 1514, 1476]"
3,"[1.0, 5.0, 4.0]",13,21,2315,"[2, 1, 3, 1, 2]","[219, 298, 357, 359, 598]"
2,"[6.0, 8.0, 1.0]",5,85,1532,"[3, 1, 2]","[437, 359, 399]"
3,"[6.0, 5.0, 9.0]",15,91,1362,"[3, 1, 3]","[219, 399, 358]"
2,"[2.0, 6.0, 1.0]",14,91,1716,"[1, 3, 1, 2]","[299, 359, 160, 578]"
1,"[5.0, 1.0, 4.0]",24,88,1647,"[2, 3, 1]","[338, 279, 757]"
1,"[2.0, 1.0, 3.0]",1,40,2056,"[2, 1, 3, 1, 3, 2, 1]","[119, 259, 298, 259, 159, 179, 158]"
3,"[1.0, 2.0, 8.0]",11,40,1467,"[2, 3, 2, 1, 3]","[97, 219, 439, 200, 39]"
2,"[2.0, 7.0, 4.0]",26,45,1105,"[3, 2, 1]","[239, 281, 178]"
2,"[1.0, 2.0, 5.0]",4,31,2192,"[2, 1, 3, 2, 3, 2]","[158, 399, 131, 697, 299, 40]"
1,"[8.0, 2.0, 3.0]",9,45,935,"[2, 1, 3]","[159, 239, 219]"
1,"[8.0, 5.0, 2.0]",7,58,7312,"[1, 3, 2, 1]","[1813, 1116, 3489, 537]"
1,"[9.0, 4.0, 6.0]",27,2,1329,"[3, 1]","[359, 619]"
2,"[7.0, 8.0, 3.0]",22,41,1604,"[2, 1, 2]","[517, 238, 499]"
2,"[1.0, 10.0, 7.0]",23,23,2514,"[1, 3, 2]","[397, 857, 957]"
2,"[5.0, 10.0, 1.0]",7,36,3264,"[2, 1, 3, 2]","[458, 1435, 417, 458]"
2,"[3.0, 4.0, 1.0]",5,78,2296,"[1, 3, 2]","[298, 977, 618]"
3,"[2.0, 7.0, 5.0]",21,1,4308,"[1, 3, 2, 3]","[497, 718, 557, 2173]"
3,"[4.0, 2.0, 7.0]",10,60,1323,"[2, 1, 3]","[100, 180, 639]"
1,"[8.0, 6.0, 2.0]",26,9,1405,"[1, 3, 1, 2]","[160, 298, 379, 40]"
3,"[3.0, 7.0, 5.0]",29,20,3132,"[2, 3, 1, 2, 3]","[356, 577, 538, 616, 580]"
1,"[3.0, 2.0, 1.0]",1,98,1328,"[2, 3, 1, 2]","[159, 160, 497, 200]"
3,"[2.0, 7.0, 8.0]",16,82,5785,"[2, 1, 3]","[377, 278, 4766]"
1,"[3.0, 1.0, 2.0]",14,58,1609,"[1, 3, 2, 3, 1]","[279, 239, 260, 299, 58]"
1,"[6.0, 2.0, 1.0]",10,30,2028,"[3, 1, 2]","[419, 558, 638]"
1,"[2.0, 5.0, 1.0]",29,2,3563,"[2, 3, 1, 2, 1, 3]","[218, 319, 776, 1050, 398, 220]"
2,"[4.0, 6.0, 2.0]",7,93,10337,"[2, 1, 3, 1, 2]","[2731, 2492, 1974, 2172, 518]"
2,"[2.0, 4.0, 5.0]",13,84,3170,"[2, 1, 3, 2, 3, 1, 2]","[119, 279, 200, 438, 200, 498, 897]"
1,"[5.0, 3.0, 1.0]",6,36,8489,"[1, 2, 3, 2, 1, 2, 3, 1, 2, 1]","[359, 338, 438, 418, 995, 259, 559, 2292, 559, 1356]"
1,"[5.0, 4.0, 1.0]",19,34,1105,"[3, 1, 2]","[199, 328, 235]"
2,"[1.0, 7.0, 2.0]",12,56,955,"[2, 1]","[100, 219]"
2,"[9.0, 10.0, 1.0]",23,17,2237,"[1, 2, 3, 1]","[377, 658, 778, 82]"
3,"[1.0, 3.0, 6.0]",1,47,1438,"[2, 1, 3, 2]","[179, 258, 159, 320]"
2,"[2.0, 4.0, 3.0]",30,57,2501,"[3, 2, 1, 3, 2]","[239, 318, 419, 458, 658]"
2,"[4.0, 7.0, 1.0]",15,56,1010,"[2, 1, 3]","[178, 219, 199]"
1,"[9.0, 1.0, 3.0]",19,65,2335,"[2, 1, 3, 1, 3, 1]","[80, 217, 219, 379, 479, 399]"
1,"[7.0, 3.0, 2.0]",28,20,1972,"[1, 2, 3, 1, 3]","[219, 319, 258, 359, 299]"
3,"[1.0, 2.0, 8.0]",20,22,1987,"[3, 1, 2, 3]","[232, 259, 279, 704]"
3,"[3.0, 1.0, 8.0]",24,80,1473,"[1, 3, 2, 3]","[319, 339, 220, 180]"
2,"[3.0, 4.0, 6.0]",8,80,3571,"[2, 3, 1, 2]","[498, 837, 160, 1675]"
3,"[2.0, 1.0, 4.0]",17,24,3644,"[3, 2, 1, 3, 2, 3]","[498, 378, 539, 359, 520, 299]"
2,"[2.0, 9.0, 6.0]",30,61,1739,"[3, 1, 2]","[338, 359, 659]"
2,"[6.0, 9.0, 8.0]",16,84,11211,"[1, 3, 2, 1, 3, 2, 1, 2, 1, 2, 3, 1, 2]","[1454, 1554, 358, 2213, 478, 479, 234, 280, 717, 779, 916, 240, 579]"
2,"[5.0, 6.0, 3.0]",6,44,1461,"[2, 1, 3, 2]","[557, 219, 178, 99]"
2,"[2.0, 4.0, 3.0]",27,82,1220,"[3, 1, 2]","[180, 160, 519]"
2,"[5.0, 6.0, 9.0]",16,86,3428,"[3, 2, 1, 3, 2]","[219, 378, 1113, 258, 997]"
2,"[5.0, 3.0, 6.0]",6,88,2370,"[1, 2, 3, 2]","[179, 438, 239, 997]"
2,"[2.0, 8.0, 1.0]",12,37,1523,"[2, 3, 1, 3, 1]","[160, 159, 159, 438, 160]"
3,"[1.0, 4.0, 5.0]",21,83,1133,"[2, 1, 3]","[238, 197, 419]"
1,"[8.0, 2.0, 4.0]",24,95,3657,"[2, 3, 2, 1]","[876, 1695, 297, 482]"
2,"[9.0, 7.0, 4.0]",15,85,2065,"[1, 3, 2, 1, 2]","[318, 260, 338, 260, 439]"
3,"[6.0, 3.0, 5.0]",16,69,3128,"[1, 3, 2, 1, 3]","[498, 1335, 519, 260, 99]"
1,"[4.0, 2.0, 1.0]",17,73,3356,"[3, 2, 3, 1, 2, 1]","[119, 59, 679, 179, 297, 523]"
1,"[6.0, 2.0, 3.0]",30,67,2541,"[3, 1, 2, 3, 1]","[259, 299, 440, 347, 658]"
2,"[2.0, 5.0, 3.0]",3,34,1321,[1],[498]
3,"[3.0, 2.0, 4.0]",21,34,8508,"[2, 1, 3, 2, 1, 3, 2]","[259, 518, 717, 1156, 3030, 1199, 1052]"
2,"[1.0, 6.0, 4.0]",20,18,2774,"[1, 2, 3, 2, 1, 2]","[238, 198, 339, 391, 622, 260]"
2,"[10.0, 6.0, 2.0]",27,46,1409,"[3, 2]","[300, 559]"
1,"[7.0, 1.0, 8.0]",12,44,1540,"[2, 3, 2, 1]","[119, 119, 182, 558]"
2,"[2.0, 7.0, 4.0]",24,53,3100,"[2, 1, 3, 1, 2, 3, 2]","[478, 259, 473, 578, 519, 319, 79]"
3,"[7.0, 2.0, 9.0]",4,16,1661,"[2, 3, 1]","[398, 715, 219]"
2,"[3.0, 8.0, 1.0]",2,12,2648,"[2, 3, 1, 2, 3, 2, 1, 2]","[219, 180, 199, 239, 478, 219, 239, 219]"
3,"[4.0, 8.0, 5.0]",19,40,1529,"[2, 3, 1, 2]","[180, 358, 20, 308]"
2,"[2.0, 9.0, 3.0]",29,85,5053,"[2, 1, 3, 2, 3, 2]","[377, 638, 478, 1037, 1236, 812]"
2,"[2.0, 9.0, 6.0]",9,46,1076,"[2, 3, 2]","[180, 299, 300]"
1,"[3.0, 1.0, 2.0]",1,84,1289,"[3, 1]","[179, 658]"
1,"[5.0, 2.0, 4.0]",13,10,4608,"[1, 3, 2, 3, 2, 1, 3, 1]","[637, 222, 378, 378, 479, 778, 578, 261]"
1,"[4.0, 6.0, 2.0]",30,60,3130,"[2, 3, 1, 2, 3, 1]","[179, 219, 718, 717, 518, 221]"
2,"[4.0, 3.0, 2.0]",3,69,3205,[3],[200]
1,"[10.0, 2.0, 3.0]",13,57,802,"[2, 1, 3]","[159, 199, 99]"
1,"[9.0, 8.0, 4.0]",15,54,1017,"[2, 1, 3, 1]","[159, 159, 259, 59]"
1,"[2.0, 1.0, 3.0]",14,70,5181,"[1, 3, 1, 2, 1, 3, 1, 3, 1, 3, 1]","[259, 459, 441, 299, 359, 179, 178, 559, 1055, 598, 298]"
3,"[2.0, 5.0, 3.0]",10,18,2324,"[3, 2, 1, 3]","[299, 358, 339, 779]"
2,"[2.0, 7.0, 5.0]",25,42,10916,"[2, 1, 2, 3, 1, 3, 1, 2]","[199, 757, 339, 447, 1176, 777, 797, 5900]"
1,"[8.0, 7.0, 6.0]",25,81,4005,"[1, 3, 2, 3, 1, 2, 3, 1]","[456, 538, 398, 556, 161, 479, 378, 498]"
1,"[7.0, 5.0, 8.0]",9,56,1173,"[2, 1, 3, 1]","[158, 199, 397, 80]"
2,"[3.0, 8.0, 6.0]",19,91,1131,"[1, 2, 3]","[179, 239, 399]"
2,"[5.0, 3.0, 1.0]",6,9,2517,"[2, 3, 1, 2]","[238, 338, 837, 639]"
1,"[7.0, 2.0, 6.0]",8,9,2682,"[3, 1, 3, 2, 1]","[240, 218, 658, 677, 379]"
1,"[4.0, 2.0, 1.0]",8,26,6819,"[1, 2, 3, 1, 2, 1]","[677, 638, 637, 1117, 658, 2532]"
2,"[2.0, 7.0, 8.0]",16,6,4308,"[1, 3, 2, 1, 2]","[816, 618, 1076, 1255, 162]"
1,"[7.0, 4.0, 5.0]",8,100,897,[1],[598]
3,"[3.0, 2.0, 7.0]",5,73,1626,"[3, 1, 2, 3]","[239, 359, 478, 199]"
2,"[2.0, 3.0, 1.0]",11,8,2548,"[3, 1, 3, 2, 1]","[178, 358, 379, 858, 379]"
1,"[3.0, 1.0, 2.0]",21,55,3561,"[1, 3, 1, 2, 3, 1]","[179, 857, 418, 359, 499, 698]"
2,"[4.0, 9.0, 8.0]",27,16,939,[2],[638]
1,"[1.0, 2.0, 4.0]",12,52,1749,"[2, 1, 3, 2, 1]","[159, 278, 199, 458, 120]"
3,"[1.0, 9.0, 4.0]",20,93,1465,"[2, 3, 2]","[214, 194, 319]"
3,"[8.0, 3.0, 4.0]",17,9,1394,"[3, 2]","[758, 258]"
2,"[2.0, 3.0, 1.0]",14,2,1893,"[2, 1, 3, 2]","[298, 359, 361, 438]"
3,"[5.0, 4.0, 8.0]",20,67,1411,[1],[18]
2,"[6.0, 4.0, 1.0]",13,58,2422,"[2, 1, 3, 2, 3, 1, 3]","[20, 159, 179, 118, 219, 457, 559]"
3,"[3.0, 4.0, 7.0]",14,27,2099,"[2, 1, 3, 1, 2, 3]","[319, 339, 358, 299, 379, 21]"
2,"[3.0, 7.0, 2.0]",26,90,1357,"[2, 1, 3, 2]","[416, 230, 275, 76]"
2,"[2.0, 10.0, 3.0]",17,60,1513,"[3, 2]","[180, 957]"
2,"[3.0, 5.0, 6.0]",16,43,3893,"[1, 3, 2, 3, 1, 3, 2]","[597, 499, 558, 478, 258, 459, 520]"
2,"[8.0, 10.0, 5.0]",20,54,1173,"[1, 2]","[248, 256]"
3,"[3.0, 2.0, 4.0]",21,100,2408,"[2, 1, 3, 1, 2, 3]","[159, 179, 617, 299, 359, 379]"
2,"[3.0, 7.0, 5.0]",19,6,1453,"[2, 3, 1, 2]","[179, 358, 278, 236]"
1,"[6.0, 3.0, 5.0]",9,54,1209,"[2, 1, 3]","[118, 197, 399]"
3,"[1.0, 2.0, 6.0]",30,84,975,"[3, 1]","[498, 199]"
3,"[2.0, 4.0, 9.0]",10,22,2859,"[2, 3, 1, 2, 3]","[430, 397, 558, 738, 379]"
3,"[1.0, 8.0, 4.0]",19,54,1471,"[2, 3]","[95, 1034]"
1,"[6.0, 2.0, 3.0]",24,74,2956,"[1, 3, 2, 1]","[477, 538, 1037, 597]"
1,"[4.0, 3.0, 5.0]",28,35,2055,"[2, 3, 1, 3, 1]","[238, 239, 439, 575, 159]"
1,"[3.0, 1.0, 2.0]",14,49,2203,"[2, 1, 3, 1]","[240, 996, 299, 319]"
3,"[2.0, 6.0, 8.0]",19,78,1137,"[2, 3, 1]","[160, 218, 438]"
3,"[3.0, 5.0, 7.0]",25,79,4845,"[1, 3, 2, 3, 1, 2, 3]","[538, 618, 478, 697, 419, 857, 760]"
1,"[7.0, 4.0, 2.0]",13,93,1298,"[2, 1, 3, 2]","[159, 398, 319, 20]"
3,"[1.0, 2.0, 10.0]",17,94,708,[3],[239]
3,"[2.0, 5.0, 7.0]",5,58,1401,"[2, 1, 3]","[538, 359, 160]"
3,"[8.0, 2.0, 4.0]",17,33,14168,"[1, 2, 3, 2, 1, 2, 3, 2, 1, 3, 2, 3, 1]","[280, 256, 279, 176, 337, 1154, 618, 1176, 2452, 1012, 597, 2053, 240]"
1,"[9.0, 7.0, 8.0]",20,4,2130,"[2, 1, 2, 1]","[168, 701, 309, 20]"
1,"[8.0, 1.0, 2.0]",19,30,1235,"[3, 1]","[378, 583]"
3,"[1.0, 7.0, 6.0]",9,75,1322,"[1, 2, 3]","[39, 219, 638]"
1,"[7.0, 3.0, 2.0]",14,31,1473,"[1, 2, 3, 1]","[318, 399, 260, 120]"
2,"[1.0, 2.0, 7.0]",23,36,3272,"[2, 1, 3, 2]","[199, 358, 498, 1815]"
2,"[2.0, 7.0, 3.0]",13,89,1385,"[1, 3, 2]","[338, 279, 459]"
2,"[4.0, 10.0, 8.0]",2,30,2782,"[2, 3, 2, 3, 2, 1, 3, 2]","[239, 219, 199, 259, 199, 299, 319, 179]"
2,"[4.0, 7.0, 2.0]",5,55,2017,"[3, 1, 2]","[238, 798, 560]"
3,"[1.0, 2.0, 10.0]",7,85,3451,"[2, 1, 2, 3]","[1315, 1117, 120, 278]"
2,"[2.0, 3.0, 1.0]",10,55,1307,"[2, 3, 1, 2]","[358, 279, 280, 20]"
3,"[3.0, 5.0, 7.0]",4,63,1077,"[1, 3]","[159, 578]"
2,"[1.0, 4.0, 6.0]",27,23,2484,"[2, 3, 1, 2]","[239, 677, 338, 837]"
1,"[9.0, 2.0, 3.0]",10,79,811,[1],[538]
2,"[1.0, 7.0, 6.0]",12,95,1094,[2],[837]
3,"[3.0, 2.0, 7.0]",14,51,1174,"[1, 2, 3]","[319, 299, 200]"
2,"[2.0, 10.0, 1.0]",13,86,1499,"[1, 3, 2, 1]","[298, 299, 398, 160]"
3,"[3.0, 2.0, 8.0]",22,99,1662,"[2, 1, 3]","[279, 458, 541]"
3,"[2.0, 3.0, 4.0]",17,70,2435,"[3, 2, 3, 2, 1]","[41, 416, 578, 123, 20]"
2,"[1.0, 5.0, 2.0]",29,99,2920,"[2, 1, 3, 1, 2, 3]","[168, 199, 639, 499, 599, 317]"
3,"[4.0, 5.0, 8.0]",19,60,1790,"[3, 1, 2, 1]","[239, 259, 577, 149]"
3,"[8.0, 6.0, 9.0]",15,100,1756,"[3, 1, 3, 2]","[179, 619, 324, 199]"
3,"[8.0, 7.0, 9.0]",22,61,1473,"[2, 1, 3]","[179, 219, 694]"
3,"[6.0, 4.0, 10.0]",2,93,955,"[2, 3, 2]","[258, 239, 81]"
1,"[7.0, 1.0, 4.0]",14,29,1844,"[2, 1, 3, 2, 1]","[398, 378, 358, 200, 99]"
2,"[3.0, 2.0, 5.0]",9,41,1546,"[2, 1, 2, 3]","[160, 319, 359, 379]"
3,"[2.0, 4.0, 9.0]",11,31,1133,"[2, 3, 1, 2]","[119, 258, 198, 200]"
3,"[3.0, 6.0, 4.0]",27,74,1107,"[3, 1]","[478, 319]"
2,"[3.0, 5.0, 2.0]",21,84,1514,"[2, 1, 3, 1, 2]","[180, 139, 438, 160, 200]"
1,"[3.0, 1.0, 2.0]",1,4,1368,"[3, 1, 3, 1]","[120, 298, 200, 239]"
2,"[8.0, 10.0, 5.0]",26,100,1655,"[1, 3, 1, 2]","[298, 290, 140, 478]"
3,"[8.0, 4.0, 9.0]",18,78,4463,"[2, 1, 3, 1, 3, 1, 3]","[887, 317, 492, 495, 715, 734, 20]"
3,"[3.0, 1.0, 8.0]",27,72,893,"[2, 3]","[159, 438]"
2,"[5.0, 10.0, 3.0]",18,29,3036,"[2, 1, 3, 2]","[1255, 518, 339, 557]"
1,"[4.0, 2.0, 3.0]",5,99,1771,"[2, 1, 3, 1]","[458, 260, 496, 219]"
2,"[6.0, 8.0, 2.0]",5,34,1693,"[1, 3, 2, 3]","[477, 334, 453, 20]"
2,"[1.0, 8.0, 3.0]",19,1,1343,"[1, 2]","[119, 898]"
3,"[1.0, 2.0, 10.0]",17,18,850,[3],[377]
2,"[5.0, 6.0, 3.0]",5,40,2733,"[1, 3, 2, 1, 2, 3]","[436, 339, 517, 558, 219, 20]"
3,"[1.0, 2.0, 7.0]",29,58,2587,"[1, 3, 2, 3, 1]","[357, 358, 759, 577, 99]"
1,"[4.0, 5.0, 3.0]",6,32,2154,"[2, 1, 3, 1]","[474, 399, 518, 340]"
1,"[8.0, 2.0, 6.0]",5,22,1864,"[1, 3, 1, 2, 1]","[279, 339, 419, 359, 59]"
3,"[7.0, 6.0, 10.0]",23,67,2049,"[1, 3, 1, 2, 3]","[219, 457, 419, 259, 160]"
2,"[6.0, 10.0, 7.0]",25,90,3794,"[2, 1, 2, 3, 2, 1, 3, 2]","[479, 336, 217, 63, 282, 382, 497, 879]"
1,"[9.0, 8.0, 5.0]",18,22,2271,"[2, 1, 3, 1]","[796, 358, 458, 299]"
3,"[4.0, 5.0, 10.0]",2,63,956,"[3, 1]","[319, 219]"
1,"[4.0, 6.0, 3.0]",8,39,1378,[1],[899]
1,"[9.0, 4.0, 8.0]",30,32,1736,"[2, 3, 1, 2]","[433, 373, 518, 39]"
3,"[6.0, 5.0, 4.0]",13,39,2452,"[2, 1, 3, 1, 3, 2]","[339, 277, 259, 377, 219, 459]"
2,"[3.0, 8.0, 6.0]",27,6,1851,"[3, 1, 2]","[537, 390, 478]"
1,"[7.0, 3.0, 6.0]",9,53,1067,"[2, 3, 1]","[279, 120, 399]"
2,"[5.0, 10.0, 7.0]",26,49,811,[2],[498]
3,"[1.0, 3.0, 5.0]",4,46,3208,"[2, 1, 3, 1, 3]","[319, 200, 239, 476, 1334]"
2,"[2.0, 6.0, 5.0]",27,75,1974,"[3, 1, 2]","[378, 358, 831]"
2,"[4.0, 8.0, 5.0]",18,50,2538,"[2, 1, 3, 2]","[657, 319, 478, 757]"
3,"[2.0, 1.0, 4.0]",24,15,3345,"[1, 3, 2, 1, 3, 1, 3]","[338, 399, 499, 318, 500, 438, 360]"
2,"[2.0, 7.0, 4.0]",14,28,2455,"[1, 3, 1, 3, 1, 3, 2]","[299, 298, 200, 100, 279, 461, 397]"
1,"[3.0, 2.0, 4.0]",3,37,3584,"[1, 2, 3, 1, 2]","[298, 893, 518, 856, 537]"
1,"[5.0, 2.0, 6.0]",6,64,2009,"[1, 2, 3, 1]","[399, 239, 659, 298]"
2,"[6.0, 8.0, 1.0]",15,48,1104,"[1, 2, 3]","[258, 219, 219]"
2,"[8.0, 3.0, 1.0]",24,11,5195,"[1, 3, 2, 1, 2, 1, 3, 2]","[537, 545, 1015, 739, 20, 374, 798, 518]"
3,"[3.0, 4.0, 5.0]",3,88,1716,[3],[39]
2,"[5.0, 6.0, 4.0]",28,60,1994,"[2, 1, 3, 2]","[219, 199, 339, 718]"
3,"[5.0, 6.0, 8.0]",16,48,4305,"[1, 3, 2, 3]","[737, 1992, 917, 279]"
3,"[2.0, 3.0, 1.0]",2,92,1818,"[3, 2, 1, 3]","[239, 338, 399, 460]"
2,"[2.0, 10.0, 5.0]",13,40,1040,"[1, 2, 3]","[319, 279, 102]"
1,"[9.0, 3.0, 1.0]",20,80,1683,[1],[155]
1,"[10.0, 1.0, 2.0]",4,57,687,[1],[398]
1,"[5.0, 3.0, 1.0]",3,87,1542,"[1, 3]","[598, 459]"
2,"[5.0, 9.0, 6.0]",23,42,1721,"[2, 3, 1, 2]","[339, 251, 418, 299]"
2,"[4.0, 3.0, 5.0]",3,56,2115,[2],[817]
3,"[5.0, 2.0, 8.0]",25,46,5126,"[1, 3, 2, 3, 2, 1, 3]","[381, 353, 637, 478, 1515, 219, 1076]"
1,"[9.0, 2.0, 5.0]",18,58,1973,"[1, 3, 2, 1]","[714, 358, 358, 180]"
1,"[8.0, 2.0, 6.0]",27,26,910,"[3, 1]","[119, 458]"
3,"[9.0, 3.0, 10.0]",15,55,1572,"[1, 3, 1, 3]","[218, 419, 219, 240]"
3,"[1.0, 5.0, 6.0]",7,69,5225,"[1, 3, 2, 1, 3]","[239, 917, 1895, 996, 338]"
2,"[3.0, 4.0, 2.0]",21,6,8929,"[2, 1, 3, 2, 1, 3, 2, 3, 2]","[477, 299, 718, 937, 1335, 1355, 2014, 597, 358]"
1,"[5.0, 2.0, 3.0]",21,98,2580,"[1, 3, 2, 3, 1]","[219, 219, 976, 617, 219]"
1,"[1.0, 2.0, 3.0]",12,14,1250,"[3, 1, 2, 3, 1]","[200, 219, 239, 220, 20]"
1,"[6.0, 3.0, 2.0]",4,83,995,"[2, 3, 1]","[159, 120, 318]"
1,"[5.0, 1.0, 3.0]",12,10,1042,"[3, 1, 2, 1]","[200, 140, 219, 159]"
3,"[1.0, 4.0, 10.0]",17,61,647,[3],[318]
3,"[8.0, 6.0, 10.0]",23,86,3674,"[2, 3, 1, 2, 3]","[236, 378, 598, 722, 1032]"
2,"[2.0, 4.0, 3.0]",17,43,1789,"[2, 3, 1]","[198, 259, 678]"
2,"[1.0, 3.0, 5.0]",6,38,2522,"[2, 3, 2, 1, 3, 1, 2]","[199, 339, 558, 231, 458, 219, 22]"
1,"[7.0, 2.0, 3.0]",30,54,1571,"[2, 3, 1]","[259, 299, 657]"
2,"[2.0, 7.0, 3.0]",10,72,1258,"[1, 3, 2]","[199, 199, 538]"
3,"[2.0, 3.0, 8.0]",26,79,2273,"[3, 1, 2, 3]","[358, 358, 439, 758]"
1,"[10.0, 1.0, 5.0]",23,47,2922,"[2, 1, 3, 2, 1]","[278, 416, 637, 717, 478]"
2,"[5.0, 6.0, 7.0]",25,44,6226,"[2, 3, 1, 2]","[1713, 675, 418, 2871]"
2,"[2.0, 4.0, 1.0]",7,22,13144,"[2, 1, 3, 1, 3, 2, 1, 2, 3, 2, 3, 2]","[1437, 20, 1136, 1834, 749, 1037, 20, 797, 797, 479, 1865, 1197]"
2,"[1.0, 7.0, 3.0]",1,1,1782,"[2, 3, 1, 2]","[318, 160, 139, 818]"
3,"[3.0, 6.0, 5.0]",25,5,3889,"[1, 3, 2, 3]","[357, 1216, 1335, 598]"
2,"[1.0, 5.0, 2.0]",12,29,1380,"[2, 3, 2, 3, 1]","[80, 199, 339, 160, 179]"
3,"[1.0, 5.0, 7.0]",29,7,2383,"[2, 1, 2, 3]","[99, 617, 177, 1017]"
3,"[3.0, 1.0, 2.0]",21,26,3386,"[2, 1, 3, 1, 2, 3]","[179, 239, 581, 1016, 678, 279]"
3,"[3.0, 2.0, 10.0]",26,46,1104,"[1, 3, 1]","[74, 476, 201]"
1,"[5.0, 1.0, 2.0]",11,5,1269,"[3, 1, 2, 3, 1]","[99, 258, 198, 220, 58]"
2,"[1.0, 9.0, 2.0]",9,87,711,"[2, 1]","[339, 120]"
1,"[4.0, 1.0, 2.0]",17,79,1841,"[3, 2, 1, 3, 1]","[199, 320, 20, 59, 180]"
2,"[6.0, 10.0, 3.0]",26,58,789,"[1, 2]","[180, 320]"
3,"[4.0, 3.0, 8.0]",15,12,1619,"[3, 1, 3, 2, 3]","[80, 279, 399, 259, 162]"
3,"[6.0, 2.0, 8.0]",5,13,2049,"[2, 1, 3]","[180, 837, 599]"
3,"[2.0, 3.0, 5.0]",28,24,2877,"[2, 1, 3, 2]","[259, 259, 598, 1395]"
2,"[5.0, 2.0, 7.0]",7,53,8164,"[2, 1, 3, 1, 2]","[2054, 1097, 1792, 1317, 938]"
1,"[2.0, 4.0, 5.0]",28,81,1799,"[1, 3, 2, 1]","[319, 219, 251, 501]"
2,"[6.0, 5.0, 7.0]",25,93,4014,"[1, 3, 2, 1, 3, 2]","[398, 419, 657, 399, 458, 1216]"
2,"[1.0, 7.0, 3.0]",11,18,2003,"[2, 1, 3, 2, 1, 2]","[179, 260, 358, 478, 20, 236]"
3,"[5.0, 3.0, 10.0]",2,36,1939,"[2, 1, 3, 2, 3]","[260, 418, 299, 176, 420]"
1,"[8.0, 2.0, 1.0]",24,99,2102,"[3, 1, 2, 1]","[577, 299, 358, 359]"
1,"[2.0, 4.0, 3.0]",8,48,2547,"[1, 3, 2, 1]","[578, 678, 737, 160]"
2,"[3.0, 5.0, 2.0]",3,19,1458,[3],[82]
1,"[5.0, 1.0, 3.0]",12,98,1077,"[1, 3, 1]","[478, 220, 80]"
3,"[5.0, 2.0, 6.0]",13,76,1935,"[1, 2, 3, 2, 1, 3]","[218, 20, 299, 279, 295, 202]"
3,"[1.0, 3.0, 5.0]",15,5,1636,"[2, 3, 1, 2]","[238, 339, 278, 399]"
1,"[2.0, 1.0, 4.0]",17,2,2314,"[2, 3, 2, 1]","[238, 539, 459, 619]"
3,"[4.0, 1.0, 10.0]",17,65,803,[3],[320]
1,"[10.0, 3.0, 9.0]",22,84,1428,"[2, 3, 1]","[99, 139, 698]"
3,"[4.0, 9.0, 10.0]",18,93,3297,"[2, 1, 3, 2, 3]","[635, 181, 414, 398, 874]"
3,"[2.0, 1.0, 8.0]",5,37,1477,"[2, 1, 3]","[478, 358, 341]"
3,"[3.0, 2.0, 4.0]",3,35,2038,[2],[938]
2,"[3.0, 9.0, 1.0]",12,12,777,"[2, 3, 2]","[160, 278, 20]"
2,"[1.0, 6.0, 2.0]",14,1,2782,"[1, 2, 3, 2, 3, 1, 2]","[259, 358, 378, 718, 179, 219, 199]"
1,"[10.0, 2.0, 5.0]",13,72,1095,"[2, 1, 3]","[141, 279, 160]"
3,"[6.0, 5.0, 9.0]",7,65,3111,"[1, 3, 1, 2, 3]","[337, 339, 1037, 559, 479]"
1,"[4.0, 8.0, 3.0]",8,69,981,[1],[678]
3,"[3.0, 7.0, 4.0]",30,87,2180,"[3, 2, 3, 1, 3]","[101, 177, 299, 497, 637]"
1,"[9.0, 4.0, 6.0]",9,76,885,"[2, 3, 1]","[160, 99, 319]"
1,"[1.0, 2.0, 3.0]",12,7,1329,"[2, 3, 1, 3]","[159, 119, 518, 140]"
2,"[3.0, 8.0, 1.0]",15,32,1265,"[1, 2, 3, 2]","[279, 239, 279, 140]"
1,"[3.0, 6.0, 1.0]",8,57,3107,"[1, 2, 3, 2, 1]","[360, 319, 637, 796, 499]"
1,"[6.0, 3.0, 1.0]",13,66,2655,"[1, 2, 3, 1, 2, 1]","[259, 220, 376, 457, 499, 240]"
1,"[5.0, 1.0, 3.0]",11,95,1239,"[1, 2, 3, 1]","[317, 160, 339, 63]"
1,"[6.0, 5.0, 7.0]",26,22,3539,"[2, 3, 1, 2, 1]","[217, 394, 339, 558, 1204]"
1,"[7.0, 2.0, 3.0]",26,38,953,"[2, 1, 3]","[259, 219, 159]"
3,"[3.0, 2.0, 7.0]",21,94,4552,"[2, 1, 3, 2, 1, 2, 3, 1, 3]","[140, 218, 359, 419, 20, 220, 438, 458, 1217]"
2,"[6.0, 4.0, 1.0]",19,16,1200,"[1, 3, 2]","[178, 119, 330]"
2,"[4.0, 3.0, 2.0]",10,94,1319,"[1, 2, 3]","[279, 518, 201]"
1,"[3.0, 6.0, 2.0]",5,10,3837,"[1, 3, 2, 1, 3, 2]","[358, 460, 479, 617, 857, 339]"
1,"[4.0, 2.0, 1.0]",21,10,6581,"[2, 1, 3, 2, 3, 1, 2, 1]","[339, 459, 877, 558, 159, 1875, 1335, 479]"
3,"[3.0, 4.0, 5.0]",3,96,1433,"[1, 3]","[160, 499]"
3,"[3.0, 1.0, 5.0]",12,87,1423,"[2, 1, 2, 3]","[139, 139, 119, 678]"
2,"[5.0, 10.0, 4.0]",25,58,4725,"[2, 1, 3, 2, 3]","[315, 398, 558, 2789, 240]"
3,"[6.0, 2.0, 8.0]",2,19,2486,"[1, 2, 3, 1, 3]","[796, 240, 458, 398, 162]"
2,"[2.0, 8.0, 1.0]",19,11,1444,"[2, 1, 3, 2]","[180, 437, 201, 259]"
2,"[2.0, 5.0, 3.0]",5,30,1885,"[1, 3, 2]","[378, 459, 717]"
1,"[10.0, 6.0, 2.0]",23,35,2186,"[1, 2, 3, 1]","[357, 459, 179, 138]"
3,"[3.0, 6.0, 5.0]",19,100,1021,"[1, 3, 2]","[119, 458, 120]"
3,"[4.0, 2.0, 6.0]",2,82,1366,"[2, 3, 1, 2]","[239, 399, 239, 79]"
3,"[5.0, 2.0, 6.0]",22,66,2664,"[2, 1, 3, 1, 3, 1]","[219, 398, 658, 299, 399, 259]"
1,"[4.0, 1.0, 2.0]",8,53,3105,[1],[2711]
3,"[6.0, 4.0, 3.0]",25,75,4044,"[1, 3, 2, 1, 3]","[199, 459, 578, 760, 1635]"
2,"[2.0, 4.0, 5.0]",8,61,3354,"[2, 1, 3, 2]","[1076, 399, 219, 879]"
2,"[6.0, 5.0, 3.0]",5,6,3070,"[1, 3, 2, 1, 2, 1]","[398, 538, 339, 238, 818, 160]"
1,"[10.0, 2.0, 6.0]",13,97,1592,"[2, 1, 3, 2, 3, 1]","[179, 238, 179, 279, 219, 21]"
2,"[5.0, 3.0, 2.0]",4,42,2010,"[1, 3, 2, 1]","[140, 279, 479, 618]"
3,"[3.0, 5.0, 6.0]",19,69,1243,"[3, 1, 3]","[199, 330, 379]"
3,"[1.0, 2.0, 5.0]",12,58,850,"[3, 2, 3]","[259, 239, 20]"
1,"[5.0, 2.0, 4.0]",2,77,1626,"[1, 2, 3, 1]","[239, 319, 558, 119]"
3,"[2.0, 7.0, 8.0]",24,2,1758,"[2, 1, 3, 1]","[537, 199, 240, 300]"
1,"[8.0, 4.0, 3.0]",18,9,2944,"[1, 2, 1, 3, 2, 1]","[159, 438, 417, 378, 499, 418]"
2,"[3.0, 8.0, 1.0]",24,1,1769,"[2, 3, 1, 2]","[537, 199, 401, 199]"
1,"[8.0, 1.0, 6.0]",5,57,1778,"[2, 1, 3, 1]","[398, 338, 498, 80]"
3,"[1.0, 5.0, 7.0]",23,8,4761,"[1, 2, 3, 2, 1, 3]","[1097, 518, 698, 519, 978, 539]"
3,"[7.0, 3.0, 5.0]",26,74,3333,"[2, 1, 3, 1, 3, 1, 2, 3]","[127, 437, 489, 212, 339, 318, 396, 338]"
2,"[3.0, 4.0, 2.0]",17,14,2147,"[1, 3, 2, 3]","[80, 600, 359, 436]"
2,"[4.0, 8.0, 9.0]",15,79,1341,"[2, 1, 3, 2]","[259, 220, 338, 179]"
1,"[9.0, 4.0, 5.0]",18,82,2259,"[2, 1, 3, 2, 1]","[534, 279, 299, 584, 39]"
1,"[6.0, 3.0, 1.0]",2,28,2246,"[2, 1, 3, 2, 3, 1]","[219, 358, 180, 418, 298, 84]"
3,"[6.0, 3.0, 5.0]",16,46,3745,"[1, 3, 2, 3, 2, 3]","[917, 458, 459, 598, 598, 199]"
2,"[10.0, 9.0, 1.0]",23,16,2470,"[2, 3, 1]","[817, 359, 837]"
3,"[2.0, 4.0, 9.0]",18,79,2478,"[1, 3, 2, 3]","[536, 359, 498, 700]"
3,"[6.0, 2.0, 8.0]",5,16,1721,"[2, 1, 3]","[598, 319, 458]"
2,"[1.0, 6.0, 3.0]",5,39,1884,"[1, 3, 2]","[458, 459, 638]"
3,"[4.0, 5.0, 6.0]",21,39,1836,"[2, 1, 3, 2, 3]","[318, 219, 598, 140, 200]"
1,"[7.0, 3.0, 4.0]",10,99,958,"[1, 3]","[397, 259]"
3,"[3.0, 6.0, 1.0]",6,11,3055,"[2, 3, 1, 3, 1, 2]","[180, 319, 518, 737, 259, 539]"
2,"[4.0, 3.0, 2.0]",10,27,2185,"[1, 2, 3]","[398, 637, 678]"
1,"[3.0, 1.0, 2.0]",30,63,1798,"[3, 1, 2, 1]","[339, 279, 498, 121]"
1,"[7.0, 5.0, 3.0]",26,50,994,"[1, 3, 1]","[294, 318, 22]"
2,"[2.0, 5.0, 4.0]",14,89,1611,"[1, 3, 2]","[279, 318, 698]"
2,"[2.0, 5.0, 8.0]",8,77,2607,"[1, 3]","[478, 1814]"
1,"[5.0, 6.0, 9.0]",22,39,1437,"[2, 1, 3, 1]","[219, 239, 438, 179]"
1,"[6.0, 5.0, 8.0]",24,62,3078,"[1, 3, 2, 1, 3]","[572, 478, 319, 516, 818]"
2,"[6.0, 4.0, 3.0]",8,95,1087,"[1, 2]","[378, 340]"
3,"[2.0, 6.0, 3.0]",2,80,1529,"[2, 3, 1, 2]","[478, 338, 259, 19]"
2,"[3.0, 4.0, 1.0]",17,85,915,[3],[100]
2,"[4.0, 7.0, 5.0]",25,22,5099,"[1, 3, 2, 3, 2]","[498, 501, 2223, 937, 499]"
3,"[4.0, 1.0, 2.0]",27,94,1825,"[1, 2, 3, 1]","[399, 319, 419, 179]"
1,"[4.0, 3.0, 5.0]",10,17,2641,"[1, 3, 2, 3, 1]","[438, 299, 439, 579, 479]"
2,"[5.0, 3.0, 6.0]",25,35,7005,"[2, 1, 3, 2]","[1535, 3308, 478, 1337]"
1,"[6.0, 4.0, 2.0]",30,23,1360,"[2, 3, 1]","[160, 279, 558]"
1,"[6.0, 2.0, 3.0]",1,27,1146,"[2, 3, 1, 3]","[159, 158, 458, 39]"
1,"[5.0, 7.0, 3.0]",23,44,1906,"[2, 1, 3]","[436, 757, 359]"
1,"[7.0, 3.0, 2.0]",29,95,1670,"[2, 1, 3, 1]","[137, 498, 398, 219]"
2,"[4.0, 7.0, 2.0]",30,10,1074,"[2, 3]","[717, 40]"
3,"[6.0, 8.0, 7.0]",9,27,1291,"[2, 3, 1]","[398, 319, 281]"
2,"[3.0, 6.0, 2.0]",30,81,1909,"[2, 3, 1, 2]","[160, 357, 339, 538]"
3,"[3.0, 4.0, 5.0]",21,78,2465,"[2, 1, 3, 2, 3]","[677, 298, 560, 179, 338]"
2,"[3.0, 5.0, 8.0]",7,50,2611,"[1, 2]","[1514, 618]"
3,"[2.0, 6.0, 3.0]",26,59,2598,"[2, 3, 2, 1, 3]","[180, 379, 399, 658, 438]"
3,"[1.0, 3.0, 9.0]",9,59,856,"[2, 3, 2]","[139, 219, 240]"
3,"[1.0, 2.0, 3.0]",6,2,1948,"[2, 1, 3, 2, 3]","[139, 357, 400, 398, 118]"
1,"[7.0, 3.0, 2.0]",19,37,875,"[1, 3]","[237, 280]"
3,"[2.0, 6.0, 3.0]",4,36,1426,"[1, 2, 3]","[319, 220, 558]"
2,"[1.0, 3.0, 2.0]",14,46,2311,"[2, 1, 3, 2, 1, 2]","[478, 260, 418, 279, 279, 79]"
1,"[7.0, 6.0, 5.0]",19,85,621,"[1, 3]","[331, 40]"
3,"[1.0, 2.0, 4.0]",17,75,1586,"[3, 1, 3]","[219, 518, 438]"
1,"[6.0, 5.0, 7.0]",9,35,1250,"[1, 2, 3]","[337, 159, 180]"
1,"[3.0, 1.0, 2.0]",12,54,1153,"[3, 1, 3, 1]","[219, 120, 279, 140]"
1,"[9.0, 4.0, 7.0]",19,87,1113,"[1, 3, 1]","[138, 377, 142]"
2,"[3.0, 6.0, 2.0]",27,54,984,[2],[518]
3,"[5.0, 8.0, 3.0]",26,81,1693,"[3, 1, 2, 3]","[458, 279, 461, 100]"
3,"[4.0, 3.0, 5.0]",8,84,1847,"[2, 1, 3]","[215, 299, 837]"
2,"[3.0, 9.0, 2.0]",10,5,11517,"[2, 1, 3, 2, 1, 2, 3, 2, 3, 2]","[159, 339, 1077, 339, 319, 1795, 558, 1754, 339, 2867]"
3,"[7.0, 4.0, 5.0]",15,19,1349,"[2, 1, 3]","[219, 199, 579]"
2,"[6.0, 9.0, 4.0]",22,20,2596,"[1, 3, 2]","[756, 459, 1037]"
1,"[9.0, 5.0, 1.0]",23,5,4881,"[1, 2, 3, 1]","[776, 538, 1894, 1355]"
3,"[2.0, 4.0, 3.0]",10,11,2643,"[3, 1, 2, 3]","[321, 339, 458, 1137]"
1,"[8.0, 3.0, 10.0]",28,85,844,"[2, 1, 3]","[199, 219, 100]"
2,"[5.0, 3.0, 2.0]",3,1,2933,"[1, 2, 3, 2, 1]","[398, 339, 1415, 20, 242]"
1,"[3.0, 2.0, 4.0]",8,65,1920,"[2, 1]","[20, 1136]"
2,"[9.0, 7.0, 4.0]",23,56,2165,"[1, 3, 2, 1]","[258, 500, 716, 244]"
1,"[10.0, 6.0, 3.0]",25,37,11004,"[2, 1, 2, 1, 3, 2, 1]","[1794, 1654, 1721, 756, 1097, 2867, 777]"
2,"[3.0, 5.0, 1.0]",6,17,4012,"[2, 1, 2, 3, 2]","[418, 1355, 497, 200, 1040]"
2,"[5.0, 10.0, 6.0]",13,75,1361,"[1, 2, 3]","[318, 439, 300]"
3,"[2.0, 3.0, 5.0]",18,91,1998,"[1, 3, 2, 3]","[534, 461, 300, 114]"
3,"[5.0, 2.0, 7.0]",9,39,829,[3],[418]
1,"[7.0, 6.0, 2.0]",30,43,1370,"[3, 1, 2]","[358, 379, 240]"
3,"[2.0, 1.0, 9.0]",10,80,1597,"[1, 2, 3, 1]","[200, 319, 658, 82]"
3,"[2.0, 3.0, 4.0]",14,59,2237,"[1, 2, 3, 1, 2, 3, 1]","[258, 20, 380, 120, 558, 100, 240]"
3,"[3.0, 1.0, 2.0]",1,62,971,"[3, 1]","[299, 418]"
3,"[2.0, 3.0, 5.0]",29,33,1643,"[1, 3, 2, 3]","[191, 238, 399, 359]"
3,"[3.0, 1.0, 7.0]",11,47,1157,"[1, 2, 3]","[119, 120, 575]"
1,"[6.0, 3.0, 2.0]",16,5,7728,"[1, 3, 2, 1, 3, 2, 3, 1]","[418, 1176, 777, 778, 1256, 977, 657, 1156]"
1,"[7.0, 2.0, 3.0]",21,52,2559,"[2, 1, 3, 1, 3, 2, 1]","[179, 398, 379, 478, 259, 339, 99]"
1,"[7.0, 3.0, 1.0]",4,53,1068,"[2, 1]","[199, 598]"
2,"[2.0, 3.0, 4.0]",9,93,1182,"[2, 1, 3, 2]","[199, 160, 359, 160]"
3,"[1.0, 2.0, 3.0]",29,40,2103,"[3, 2, 3, 1, 3]","[254, 438, 276, 438, 219]"
2,"[2.0, 4.0, 3.0]",3,98,2489,"[1, 3, 2, 3]","[238, 817, 379, 117]"
1,"[5.0, 2.0, 3.0]",25,57,6852,"[1, 3, 2, 1, 2, 1, 3, 1, 3, 1]","[441, 401, 337, 438, 497, 738, 814, 1512, 755, 382]"
3,"[5.0, 2.0, 4.0]",26,42,2613,"[2, 1, 3, 2, 3]","[98, 259, 478, 596, 929]"
3,"[3.0, 1.0, 2.0]",1,87,1089,"[2, 3, 1]","[140, 219, 438]"
3,"[4.0, 2.0, 6.0]",6,12,2194,"[2, 3, 1, 3, 2, 3]","[259, 101, 359, 419, 397, 101]"
2,"[3.0, 7.0, 9.0]",16,7,5133,"[2, 1, 3, 2]","[677, 1693, 677, 1555]"
1,"[1.0, 4.0, 2.0]",23,69,2282,"[2, 3, 1, 2]","[238, 358, 1158, 101]"
3,"[9.0, 5.0, 10.0]",26,87,1283,"[1, 3, 1, 2, 3]","[20, 219, 199, 378, 20]"
2,"[2.0, 7.0, 4.0]",24,93,1160,"[1, 3, 2]","[261, 398, 179]"
3,"[1.0, 2.0, 6.0]",7,49,3199,"[2, 1, 3, 1, 3]","[915, 656, 119, 438, 537]"
3,"[2.0, 1.0, 3.0]",7,89,9311,"[1, 2, 3, 1]","[2990, 3069, 2553, 321]"
3,"[3.0, 2.0, 7.0]",26,10,4758,"[2, 1, 3, 1, 3, 1, 3]","[418, 420, 878, 1421, 400, 102, 224]"
3,"[5.0, 2.0, 10.0]",23,55,1078,"[2, 3, 1]","[179, 339, 178]"
1,"[4.0, 1.0, 3.0]",4,52,1070,"[1, 3, 2]","[219, 299, 80]"
2,"[1.0, 6.0, 3.0]",14,16,1690,"[2, 1, 3, 1, 2]","[319, 219, 302, 160, 259]"
1,"[9.0, 4.0, 2.0]",18,64,3759,"[1, 3, 2, 3, 1]","[915, 320, 598, 598, 877]"
3,"[3.0, 1.0, 5.0]",21,53,2120,"[2, 1, 3, 1, 2, 3]","[279, 298, 261, 259, 398, 259]"
3,"[7.0, 3.0, 8.0]",9,67,911,"[1, 3]","[199, 458]"
1,"[3.0, 1.0, 2.0]",4,25,1767,"[2, 1, 3, 2]","[160, 456, 459, 337]"
1,"[3.0, 5.0, 1.0]",20,26,1956,"[1, 3, 2, 1]","[219, 398, 359, 195]"
2,"[3.0, 7.0, 6.0]",26,25,4065,"[3, 2, 3, 1, 3, 2]","[139, 76, 123, 210, 580, 1694]"
3,"[3.0, 1.0, 10.0]",4,85,632,"[1, 3]","[123, 233]"
1,"[3.0, 2.0, 1.0]",7,20,4466,"[1, 3, 2, 1]","[1155, 717, 1575, 657]"
1,"[8.0, 4.0, 3.0]",17,68,4069,"[3, 2, 1, 2, 3, 2, 1]","[199, 81, 220, 345, 717, 794, 692]"
3,"[2.0, 1.0, 3.0]",6,51,2030,"[3, 1, 2, 3]","[378, 378, 398, 438]"
3,"[4.0, 3.0, 5.0]",14,47,1321,"[1, 3, 2, 3]","[358, 379, 239, 22]"
1,"[7.0, 8.0, 1.0]",20,21,1251,"[2, 1, 2]","[177, 495, 20]"
1,"[10.0, 5.0, 3.0]",13,28,1352,"[1, 3, 2]","[618, 280, 41]"
1,"[7.0, 2.0, 5.0]",24,44,3197,"[2, 3, 1, 3, 1, 2, 1]","[437, 578, 518, 179, 468, 416, 54]"
2,"[2.0, 6.0, 3.0]",5,70,2058,"[2, 1, 3, 2, 1]","[199, 259, 479, 435, 200]"
3,"[4.0, 3.0, 9.0]",10,14,1825,"[3, 2, 1, 3]","[278, 338, 339, 418]"
1,"[9.0, 7.0, 5.0]",20,73,1566,"[2, 3, 1, 2]","[179, 238, 219, 279]"
3,"[1.0, 3.0, 6.0]",1,81,1059,"[2, 3]","[199, 501]"
1,"[3.0, 1.0, 2.0]",14,54,2501,"[2, 1, 3, 1, 3, 2]","[386, 194, 418, 419, 438, 279]"
1,"[10.0, 3.0, 5.0]",26,14,1078,"[1, 3, 1]","[497, 219, 20]"
3,"[4.0, 1.0, 5.0]",7,96,1511,"[1, 3, 1, 3]","[198, 598, 219, 89]"
3,"[4.0, 3.0, 6.0]",8,37,4955,"[2, 1, 3, 2, 3]","[279, 478, 976, 1535, 1236]"
1,"[4.0, 1.0, 2.0]",17,55,1942,"[1, 2, 3, 1]","[219, 516, 465, 20]"
1,"[6.0, 2.0, 1.0]",29,49,2167,"[1, 3, 2, 3, 1]","[259, 298, 458, 399, 260]"
1,"[6.0, 5.0, 3.0]",6,67,1271,"[2, 1, 3, 1]","[159, 240, 279, 200]"
1,"[7.0, 1.0, 2.0]",12,80,1430,"[3, 2, 1]","[80, 239, 638]"
2,"[4.0, 9.0, 3.0]",18,51,3016,"[2, 1, 3, 2]","[817, 359, 279, 1198]"
3,"[1.0, 3.0, 5.0]",6,21,2274,"[3, 1, 2, 3]","[259, 478, 298, 778]"
1,"[8.0, 1.0, 3.0]",15,11,1301,"[2, 1, 3]","[239, 398, 363]"
1,"[6.0, 1.0, 2.0]",21,61,1315,"[1, 3, 2, 1]","[259, 298, 180, 280]"
1,"[3.0, 2.0, 7.0]",25,19,7379,"[2, 1, 3, 2, 1]","[566, 1196, 3189, 539, 1576]"
2,"[7.0, 6.0, 3.0]",24,18,2445,"[2, 1, 3, 2, 1]","[435, 303, 339, 538, 460]"
2,"[3.0, 6.0, 5.0]",25,33,5626,"[2, 1, 3, 2, 1, 3, 2]","[260, 374, 876, 897, 776, 996, 979]"
3,"[9.0, 2.0, 8.0]",26,32,2035,"[1, 2, 3, 1]","[317, 319, 596, 386]"
2,"[8.0, 6.0, 3.0]",30,75,1549,"[3, 1, 2]","[220, 339, 618]"
3,"[7.0, 1.0, 10.0]",23,66,2746,"[2, 3, 1, 2, 1, 3]","[219, 140, 479, 917, 397, 140]"
3,"[2.0, 4.0, 5.0]",29,56,2259,"[2, 3, 1, 3, 2]","[200, 219, 518, 657, 180]"
1,"[4.0, 1.0, 5.0]",10,43,5956,"[2, 1, 2, 3, 1, 3, 2, 1, 2, 1]","[121, 200, 638, 1554, 299, 916, 418, 379, 478, 100]"
3,"[3.0, 1.0, 4.0]",10,9,12400,"[3, 1, 2, 1, 3, 1, 2, 3]","[358, 398, 757, 678, 1974, 280, 1176, 6260]"
3,"[1.0, 5.0, 9.0]",30,42,1174,"[1, 3, 2]","[180, 478, 140]"
2,"[3.0, 7.0, 2.0]",14,96,2865,"[2, 1, 3, 1, 2, 1, 2]","[199, 239, 379, 279, 199, 279, 837]"
1,"[6.0, 3.0, 4.0]",9,78,1166,"[1, 3, 1]","[378, 439, 40]"
2,"[7.0, 6.0, 2.0]",13,44,3963,"[2, 1, 2, 3, 1, 2, 1, 2, 3]","[339, 158, 220, 279, 399, 318, 359, 878, 119]"
3,"[1.0, 2.0, 3.0]",11,17,1663,"[1, 2, 3, 1, 2]","[160, 259, 399, 379, 20]"
1,"[4.0, 1.0, 7.0]",29,65,4510,"[1, 3, 2, 1, 2, 1]","[159, 737, 1016, 736, 998, 359]"
2,"[2.0, 6.0, 5.0]",5,67,4224,"[3, 1, 2, 3, 2, 3, 2]","[219, 499, 419, 558, 498, 758, 539]"
2,"[1.0, 5.0, 6.0]",6,95,3398,"[2, 1, 3, 2]","[20, 279, 418, 2053]"
3,"[5.0, 3.0, 9.0]",18,76,3181,"[1, 3, 2, 1, 3]","[754, 319, 380, 233, 898]"
1,"[3.0, 2.0, 4.0]",16,99,3670,"[1, 3, 2, 3, 1]","[557, 438, 597, 1555, 80]"
3,"[2.0, 3.0, 7.0]",5,94,1416,"[3, 1, 2, 3]","[199, 379, 299, 124]"
3,"[8.0, 4.0, 9.0]",15,83,2182,"[1, 3, 2, 1, 3]","[359, 379, 339, 519, 161]"
2,"[4.0, 5.0, 3.0]",8,43,2018,"[1, 2, 3, 2]","[219, 598, 259, 518]"
2,"[3.0, 6.0, 2.0]",27,48,1216,"[1, 3, 2]","[259, 199, 259]"
3,"[1.0, 2.0, 4.0]",17,83,1042,"[3, 2, 1]","[121, 234, 81]"
3,"[7.0, 2.0, 3.0]",20,32,2304,"[3, 1, 3, 2, 3]","[258, 339, 263, 537, 256]"
3,"[4.0, 2.0, 6.0]",28,66,1825,"[2, 3, 1, 3]","[199, 200, 419, 556]"
2,"[4.0, 7.0, 2.0]",22,42,1816,"[2, 3, 1, 3, 2]","[219, 100, 338, 498, 100]"
2,"[4.0, 8.0, 1.0]",17,23,1508,"[2, 3]","[837, 239]"
3,"[1.0, 2.0, 4.0]",4,40,808,"[1, 3]","[79, 259]"
1,"[1.0, 4.0, 2.0]",12,4,1237,"[1, 3, 1, 2]","[200, 258, 200, 198]"
1,"[5.0, 1.0, 6.0]",19,12,1924,"[3, 1, 2, 3, 1]","[151, 239, 558, 379, 140]"
1,"[3.0, 2.0, 1.0]",4,61,1069,"[2, 1, 3, 2]","[159, 216, 279, 99]"
1,"[10.0, 5.0, 3.0]",13,12,1562,"[2, 1, 3, 2]","[219, 497, 339, 119]"
2,"[2.0, 9.0, 8.0]",24,21,1796,"[1, 3, 2]","[437, 379, 659]"
3,"[3.0, 4.0, 7.0]",30,44,1157,"[2, 3, 1]","[180, 418, 221]"
1,"[9.0, 4.0, 5.0]",23,1,2427,"[1, 2, 3, 1]","[678, 399, 618, 379]"
2,"[3.0, 8.0, 10.0]",27,56,903,[2],[679]
2,"[2.0, 6.0, 3.0]",14,4,2189,"[1, 2, 3, 1, 2]","[160, 418, 419, 139, 618]"
3,"[4.0, 2.0, 5.0]",2,4,5113,"[2, 1, 3, 1, 2, 1, 3, 1, 3]","[265, 358, 658, 239, 778, 358, 1176, 338, 279]"
2,"[2.0, 9.0, 7.0]",9,22,1151,"[2, 3, 1, 2]","[179, 299, 339, 20]"
2,"[5.0, 8.0, 6.0]",16,39,6349,"[1, 3, 2, 3, 1, 3, 2]","[657, 578, 977, 1216, 578, 1098, 778]"
3,"[2.0, 1.0, 7.0]",7,94,3597,"[2, 1, 3]","[1574, 1177, 497]"
1,"[6.0, 5.0, 8.0]",9,65,1081,"[1, 2, 3]","[438, 179, 140]"
2,"[1.0, 7.0, 3.0]",1,80,1114,"[3, 2]","[139, 398]"
2,"[2.0, 3.0, 5.0]",8,15,3379,"[1, 3, 2, 1, 3, 2]","[278, 518, 598, 617, 518, 139]"
1,"[6.0, 4.0, 7.0]",30,36,1390,"[3, 1, 2]","[338, 422, 200]"
2,"[2.0, 3.0, 7.0]",4,68,1229,"[1, 2, 3]","[159, 439, 260]"
1,"[3.0, 6.0, 1.0]",8,20,4463,"[3, 1, 3, 1]","[438, 1973, 1295, 301]"
1,"[8.0, 2.0, 1.0]",11,79,1155,"[1, 2, 3, 2]","[156, 160, 299, 160]"
1,"[4.0, 6.0, 9.0]",20,70,1593,"[2, 3, 2]","[162, 299, 141]"
2,"[2.0, 10.0, 1.0]",4,82,810,"[2, 1]","[319, 20]"
2,"[4.0, 9.0, 5.0]",10,95,1534,"[2, 3, 1, 2]","[339, 339, 379, 100]"
3,"[1.0, 2.0, 4.0]",17,57,2369,"[2, 3, 1, 2, 3]","[59, 480, 279, 378, 100]"
3,"[5.0, 4.0, 7.0]",25,62,3615,"[1, 3, 2, 1, 3]","[376, 558, 340, 1315, 640]"
3,"[8.0, 1.0, 10.0]",26,86,1092,"[1, 3, 2]","[139, 379, 259]"
3,"[3.0, 6.0, 8.0]",28,23,1331,"[2, 3, 1, 3]","[297, 239, 418, 20]"
2,"[1.0, 9.0, 5.0]",12,51,1150,"[2, 1, 3, 2]","[219, 160, 260, 99]"
3,"[3.0, 4.0, 8.0]",24,72,1329,"[2, 3, 1]","[697, 159, 139]"
1,"[3.0, 1.0, 2.0]",14,74,1508,"[1, 3, 2, 1]","[458, 338, 359, 59]"
1,"[8.0, 4.0, 9.0]",29,90,3353,"[3, 1, 2, 1, 3]","[318, 519, 898, 357, 657]"
3,"[2.0, 3.0, 8.0]",11,38,1710,"[1, 3, 2, 1, 3, 2]","[179, 219, 199, 399, 140, 120]"
2,"[2.0, 7.0, 3.0]",11,74,2093,"[1, 3, 1, 2]","[354, 240, 420, 659]"
2,"[2.0, 3.0, 1.0]",14,20,1698,"[1, 2, 3, 1, 2]","[260, 378, 299, 339, 40]"
1,"[9.0, 3.0, 5.0]",22,5,2407,"[2, 3, 1]","[636, 359, 1077]"
2,"[6.0, 5.0, 8.0]",24,32,3231,"[2, 1, 3, 1, 2, 1, 3, 1]","[356, 299, 439, 359, 563, 200, 438, 60]"
1,"[7.0, 6.0, 2.0]",13,43,1952,"[2, 1, 3, 2, 1]","[159, 319, 418, 280, 99]"
2,"[6.0, 7.0, 1.0]",9,12,963,"[1, 2]","[279, 319]"
3,"[1.0, 2.0, 4.0]",21,72,1542,"[1, 3, 2, 3]","[339, 299, 280, 299]"
1,"[2.0, 1.0, 3.0]",11,99,1552,"[1, 3, 2, 3]","[258, 258, 339, 299]"
1,"[1.0, 6.0, 2.0]",12,55,1194,"[3, 1, 2, 3, 1]","[160, 200, 179, 40, 119]"
1,"[3.0, 8.0, 9.0]",20,52,1187,"[1, 3]","[220, 20]"
3,"[4.0, 2.0, 3.0]",30,76,2322,"[3, 2, 1, 3, 1]","[358, 298, 359, 677, 139]"
3,"[5.0, 1.0, 2.0]",23,13,3925,"[1, 3, 2, 1, 3, 1, 3]","[338, 598, 399, 558, 798, 677, 80]"
3,"[1.0, 3.0, 7.0]",8,82,3440,"[1, 2, 3, 2, 3]","[418, 638, 539, 299, 837]"
2,"[5.0, 2.0, 3.0]",21,66,3312,"[1, 3, 2, 3, 1, 3, 2]","[199, 160, 538, 418, 239, 678, 181]"
2,"[2.0, 8.0, 3.0]",10,50,1747,"[1, 2, 3, 2]","[397, 339, 379, 220]"
3,"[2.0, 3.0, 5.0]",30,77,1512,"[3, 2, 1, 3]","[347, 258, 360, 139]"
1,"[6.0, 3.0, 2.0]",5,91,2309,"[2, 1, 3, 2, 1]","[379, 320, 538, 359, 300]"
3,"[1.0, 2.0, 3.0]",12,27,1515,"[2, 3, 1, 3]","[159, 199, 279, 374]"
2,"[4.0, 9.0, 3.0]",15,45,1375,"[2, 1, 3, 2]","[219, 339, 359, 60]"
3,"[3.0, 5.0, 6.0]",18,21,2433,"[1, 3, 2, 3]","[516, 379, 478, 739]"
3,"[3.0, 4.0, 2.0]",26,95,3182,"[2, 3, 1, 2, 3]","[219, 359, 259, 716, 1217]"
2,"[3.0, 2.0, 1.0]",1,33,1350,"[2, 3, 1, 2]","[139, 179, 318, 180]"
3,"[8.0, 5.0, 9.0]",18,83,6834,"[1, 3, 2, 1, 3, 1, 3, 1]","[753, 499, 1076, 755, 857, 877, 498, 932]"
3,"[5.0, 8.0, 6.0]",16,81,6183,"[1, 3, 2, 1, 2, 3, 2, 3]","[498, 797, 844, 558, 279, 1674, 838, 139]"
3,"[6.0, 2.0, 7.0]",13,19,1786,"[1, 3, 2, 3, 1]","[338, 259, 484, 219, 20]"
2,"[5.0, 4.0, 2.0]",30,29,1865,"[1, 2, 3, 1, 2]","[299, 278, 340, 339, 40]"
2,"[7.0, 9.0, 3.0]",11,50,1371,"[1, 2, 3, 1, 2]","[199, 160, 164, 200, 20]"
1,"[8.0, 7.0, 3.0]",28,18,1807,"[2, 1, 3, 2]","[219, 497, 341, 334]"
1,"[8.0, 5.0, 7.0]",25,70,5722,"[2, 1, 3, 2, 1, 2, 1]","[836, 718, 757, 418, 1635, 398, 481]"
3,"[1.0, 6.0, 3.0]",6,43,7494,"[1, 2, 3, 2, 1, 2, 3, 2, 3]","[459, 358, 937, 99, 579, 2053, 1177, 1137, 20]"
2,"[8.0, 4.0, 3.0]",19,72,1474,"[3, 2, 1]","[303, 253, 305]"
1,"[2.0, 3.0, 1.0]",30,13,1967,"[1, 3, 2, 1]","[338, 339, 459, 459]"
2,"[7.0, 5.0, 3.0]",25,40,3234,"[2, 1, 3, 2]","[897, 361, 936, 657]"
2,"[6.0, 8.0, 5.0]",5,65,2112,"[2, 1, 3, 2]","[259, 259, 359, 757]"
1,"[7.0, 4.0, 2.0]",30,64,1420,"[3, 1, 2]","[259, 597, 222]"
1,"[10.0, 2.0, 5.0]",13,4,1510,"[2, 1, 3]","[380, 260, 319]"
2,"[9.0, 5.0, 10.0]",23,88,2530,"[1, 2, 3, 2]","[338, 457, 559, 777]"
2,"[7.0, 9.0, 5.0]",28,94,1434,"[1, 3, 2, 1]","[240, 239, 418, 139]"
3,"[2.0, 5.0, 10.0]",20,30,2659,"[2, 1, 3]","[1076, 822, 404]"
3,"[4.0, 8.0, 10.0]",18,67,2349,"[2, 1, 3]","[817, 378, 778]"
2,"[3.0, 8.0, 5.0]",2,78,2711,"[2, 3, 1, 3, 2]","[319, 279, 818, 518, 140]"
1,"[8.0, 6.0, 4.0]",15,25,1421,"[2, 1, 3, 1]","[256, 380, 345, 81]"
1,"[4.0, 6.0, 1.0]",27,63,892,"[3, 1]","[99, 458]"
2,"[2.0, 6.0, 3.0]",28,46,1527,"[3, 1, 2]","[201, 298, 739]"
2,"[2.0, 9.0, 1.0]",29,35,1998,"[2, 3, 1, 2]","[497, 198, 418, 520]"
2,"[3.0, 6.0, 2.0]",13,20,2718,"[1, 2, 3, 1]","[298, 339, 458, 1218]"
3,"[2.0, 3.0, 4.0]",6,31,2384,"[3, 1, 2, 1, 3]","[159, 259, 419, 379, 738]"
2,"[1.0, 4.0, 6.0]",23,76,3491,"[1, 3, 1, 2, 3, 2]","[160, 379, 478, 907, 219, 401]"
3,"[7.0, 1.0, 6.0]",30,68,1480,"[1, 3, 2, 3]","[279, 299, 399, 146]"
2,"[2.0, 9.0, 8.0]",9,58,739,"[2, 1]","[199, 122]"
1,"[7.0, 5.0, 2.0]",26,63,886,"[2, 1]","[180, 399]"
2,"[1.0, 7.0, 6.0]",9,13,930,"[1, 2, 3]","[199, 279, 158]"
2,"[1.0, 3.0, 2.0]",1,100,2107,"[3, 2, 3, 1, 3, 2]","[100, 199, 259, 220, 160, 679]"
3,"[7.0, 3.0, 10.0]",13,45,1610,"[1, 3, 2, 1]","[178, 399, 280, 260]"
2,"[3.0, 5.0, 2.0]",3,17,997,"[1, 3]","[357, 140]"
3,"[7.0, 2.0, 6.0]",29,81,3610,"[1, 3, 2, 1, 2, 3]","[279, 498, 359, 537, 997, 437]"
3,"[3.0, 2.0, 8.0]",5,42,998,"[3, 1, 2]","[379, 240, 100]"
3,"[7.0, 1.0, 8.0]",26,78,1248,"[2, 3, 1]","[338, 459, 182]"
2,"[3.0, 5.0, 1.0]",16,54,8445,"[2, 3, 1, 2, 3, 1, 2, 1, 2]","[558, 1036, 518, 1534, 917, 578, 199, 2093, 367]"
1,"[6.0, 3.0, 1.0]",6,15,2678,"[2, 1, 2, 3, 1]","[399, 917, 179, 219, 40]"
2,"[3.0, 6.0, 2.0]",5,38,2878,"[3, 1, 2, 3, 1, 2]","[100, 378, 378, 538, 698, 219]"
1,"[4.0, 3.0, 1.0]",3,47,2592,[3],[877]
1,"[3.0, 1.0, 2.0]",1,23,1854,"[3, 2, 1, 3, 1]","[217, 219, 219, 458, 180]"
2,"[1.0, 9.0, 2.0]",29,55,2070,"[1, 3, 2, 1, 2]","[218, 379, 798, 120, 60]"
3,"[3.0, 4.0, 1.0]",29,98,6664,"[2, 1, 3, 2, 1, 3, 2, 3]","[99, 180, 457, 778, 518, 957, 2216, 816]"
2,"[9.0, 7.0, 3.0]",22,57,986,"[1, 2, 3]","[160, 378, 80]"
3,"[6.0, 2.0, 3.0]",2,91,1649,"[2, 3, 1, 2, 3]","[359, 180, 339, 338, 39]"
1,"[8.0, 6.0, 3.0]",2,49,1689,"[2, 1, 3, 2]","[239, 718, 359, 20]"
1,"[5.0, 2.0, 3.0]",12,100,1452,"[2, 1, 3, 1]","[359, 239, 279, 237]"
3,"[5.0, 2.0, 6.0]",2,53,1090,"[2, 3, 1]","[219, 437, 140]"
3,"[2.0, 5.0, 10.0]",13,33,1965,"[2, 1, 3, 2]","[298, 378, 379, 359]"
1,"[5.0, 2.0, 1.0]",7,79,6942,"[1, 3, 1, 2, 3, 1]","[538, 319, 459, 2831, 1554, 878]"
1,"[10.0, 3.0, 1.0]",4,26,957,[1],[697]
1,"[7.0, 8.0, 4.0]",20,100,1440,[2],[157]
3,"[6.0, 1.0, 8.0]",24,46,6883,"[1, 3, 2, 1, 3, 2, 3, 1, 3, 1, 2, 1, 3]","[280, 335, 563, 299, 340, 1115, 596, 518, 438, 279, 379, 498, 239]"
2,"[1.0, 9.0, 2.0]",12,42,948,"[2, 1, 3, 2]","[199, 160, 180, 80]"
3,"[3.0, 1.0, 5.0]",2,27,1347,"[2, 3, 1, 2]","[239, 379, 259, 60]"
3,"[4.0, 1.0, 3.0]",30,4,2075,"[1, 3, 2, 1, 3]","[319, 517, 419, 418, 41]"
2,"[3.0, 6.0, 5.0]",28,29,4476,"[1, 3, 2, 3, 2]","[322, 318, 479, 695, 2031]"
2,"[1.0, 3.0, 6.0]",12,66,1354,"[1, 3, 2]","[300, 240, 200]"
3,"[2.0, 3.0, 5.0]",3,39,1197,"[2, 1]","[259, 20]"
2,"[1.0, 5.0, 3.0]",6,94,1672,"[1, 2, 3, 2]","[199, 199, 498, 358]"
2,"[2.0, 9.0, 4.0]",7,38,4221,"[1, 3, 2]","[1595, 1634, 717]"
1,"[4.0, 1.0, 2.0]",10,48,2374,"[2, 3, 1, 3, 1]","[379, 359, 480, 579, 178]"
3,"[5.0, 2.0, 9.0]",18,17,2281,"[2, 1, 3]","[897, 338, 657]"
2,"[2.0, 6.0, 9.0]",23,53,2566,"[1, 2, 3, 1, 2]","[479, 399, 378, 479, 580]"
1,"[4.0, 1.0, 3.0]",17,95,1769,"[1, 3, 1]","[219, 100, 378]"
2,"[4.0, 3.0, 1.0]",27,41,1865,"[2, 1, 3, 2]","[258, 399, 418, 399]"
1,"[3.0, 1.0, 4.0]",2,90,2980,"[2, 1, 3, 2, 3, 1, 2, 1, 3]","[159, 180, 260, 379, 239, 101, 339, 339, 358]"
2,"[3.0, 6.0, 1.0]",30,93,1466,"[2, 3, 1, 2]","[199, 318, 299, 240]"
2,"[1.0, 5.0, 2.0]",29,1,3527,"[2, 1, 3, 2]","[219, 399, 399, 2093]"
3,"[5.0, 2.0, 8.0]",20,49,1809,"[2, 1, 3, 2]","[120, 142, 106, 511]"
1,"[4.0, 5.0, 2.0]",20,44,3472,"[1, 3, 2, 1, 3]","[469, 638, 382, 631, 516]"
3,"[3.0, 4.0, 8.0]",27,60,1761,"[3, 2, 1, 3]","[279, 339, 319, 459]"
3,"[2.0, 4.0, 10.0]",13,35,1660,"[2, 1, 3, 2]","[198, 159, 541, 200]"
3,"[4.0, 2.0, 7.0]",22,58,1987,"[2, 1, 3]","[140, 238, 1215]"
1,"[2.0, 8.0, 1.0]",17,59,1409,"[2, 3, 1]","[219, 198, 139]"
1,"[8.0, 3.0, 4.0]",18,98,2666,"[2, 1, 3, 1, 2, 1]","[552, 219, 421, 338, 454, 259]"
3,"[2.0, 1.0, 7.0]",14,24,1328,"[2, 1, 3]","[359, 439, 219]"
3,"[1.0, 2.0, 7.0]",11,28,1402,"[2, 3, 2, 1, 3]","[120, 219, 219, 200, 180]"
1,"[10.0, 3.0, 1.0]",19,71,1025,"[3, 1, 2]","[238, 359, 39]"
1,"[10.0, 3.0, 8.0]",13,100,2217,"[1, 3, 2, 1, 3]","[219, 478, 385, 479, 201]"
1,"[7.0, 4.0, 3.0]",22,86,2014,"[2, 3, 1, 2, 1]","[99, 100, 439, 300, 399]"
2,"[1.0, 8.0, 7.0]",15,52,1184,"[3, 2]","[498, 199]"
1,"[7.0, 3.0, 1.0]",14,78,1447,"[1, 2, 3, 1]","[325, 219, 279, 279]"
2,"[6.0, 5.0, 7.0]",25,83,9845,"[2, 1, 2, 3, 2, 1, 2, 3, 1, 3, 2]","[537, 897, 325, 240, 1176, 2192, 1970, 260, 518, 458, 438]"
2,"[3.0, 7.0, 6.0]",30,70,3548,"[2, 1, 3, 2, 3, 2]","[199, 159, 319, 737, 577, 857]"
2,"[2.0, 3.0, 1.0]",12,96,2052,"[3, 1, 2, 3, 1, 2]","[219, 179, 120, 319, 198, 359]"
2,"[2.0, 4.0, 1.0]",10,54,1437,"[3, 1, 2]","[299, 281, 519]"
3,"[2.0, 5.0, 6.0]",9,98,840,"[1, 3, 1]","[121, 378, 55]"
2,"[5.0, 6.0, 3.0]",16,63,6620,"[1, 3, 2, 1, 2]","[437, 3906, 957, 519, 380]"
2,"[1.0, 2.0, 3.0]",1,10,1450,"[2, 1, 3, 2]","[179, 98, 139, 558]"
1,"[2.0, 1.0, 3.0]",9,9,1252,"[1, 3, 2, 1]","[219, 259, 239, 179]"
3,"[7.0, 2.0, 6.0]",8,86,1384,"[1, 3]","[398, 699]"
2,"[1.0, 3.0, 2.0]",11,57,1632,"[1, 2, 3, 2]","[159, 378, 200, 320]"
1,"[6.0, 1.0, 3.0]",24,40,1815,"[1, 3, 2, 1]","[378, 299, 478, 338]"
3,"[5.0, 4.0, 8.0]",28,6,1892,"[1, 3, 2, 1]","[339, 717, 418, 80]"
1,"[9.0, 7.0, 1.0]",15,40,1141,"[2, 1, 3]","[239, 299, 279]"
2,"[3.0, 4.0, 5.0]",27,90,2446,"[1, 2, 3, 2]","[378, 279, 798, 579]"
2,"[5.0, 10.0, 3.0]",18,30,2707,"[2, 1, 3, 2]","[1076, 538, 419, 319]"
1,"[2.0, 4.0, 1.0]",26,99,2360,"[3, 2, 1, 3, 1]","[297, 458, 378, 579, 140]"
2,"[2.0, 10.0, 1.0]",20,48,1610,"[3, 1, 2, 3]","[158, 415, 402, 72]"
1,"[10.0, 5.0, 9.0]",23,87,1118,"[1, 2]","[217, 317]"
2,"[2.0, 6.0, 7.0]",30,33,1369,"[2, 3, 1, 2]","[339, 219, 220, 179]"
2,"[3.0, 6.0, 2.0]",5,90,2093,"[2, 1, 3, 2]","[298, 140, 379, 698]"
2,"[7.0, 9.0, 1.0]",22,93,964,"[1, 2]","[172, 478]"
1,"[6.0, 5.0, 4.0]",9,29,1153,"[2, 1, 3, 2]","[200, 260, 260, 100]"
1,"[8.0, 4.0, 2.0]",28,87,1509,"[2, 1, 3, 2]","[168, 110, 230, 214]"
1,"[9.0, 3.0, 10.0]",19,33,718,"[1, 3]","[216, 139]"
2,"[4.0, 8.0, 5.0]",13,90,2583,"[2, 1, 3, 2, 3, 1]","[160, 479, 259, 458, 380, 398]"
1,"[2.0, 1.0, 3.0]",1,44,1460,"[1, 2, 3, 1]","[160, 218, 359, 260]"
3,"[7.0, 4.0, 8.0]",15,50,1203,"[2, 1, 3]","[180, 180, 538]"
1,"[8.0, 4.0, 1.0]",24,65,2552,"[2, 1, 3, 2, 1]","[433, 239, 458, 438, 656]"
3,"[2.0, 1.0, 3.0]",1,96,1164,"[2, 3, 1, 3]","[199, 179, 378, 99]"
1,"[6.0, 7.0, 4.0]",23,98,2036,"[1, 3, 2, 1]","[253, 259, 302, 918]"
3,"[5.0, 6.0, 10.0]",23,26,2701,"[1, 2, 3]","[418, 678, 1235]"
1,"[8.0, 3.0, 2.0]",2,46,886,"[1, 3, 2]","[202, 200, 80]"
3,"[1.0, 4.0, 9.0]",20,74,1232,"[3, 2]","[20, 902]"
3,"[3.0, 5.0, 10.0]",7,1,4504,"[1, 3, 2, 1, 2, 3, 2]","[1396, 618, 399, 339, 418, 577, 80]"
2,"[4.0, 8.0, 6.0]",16,91,12330,"[2, 1, 3, 1, 2, 3, 1, 2]","[1594, 3088, 3609, 876, 1156, 1136, 198, 139]"
2,"[3.0, 4.0, 1.0]",4,74,1309,"[2, 3, 2]","[239, 379, 116]"
3,"[1.0, 3.0, 6.0]",1,16,950,"[2, 3, 2]","[119, 218, 339]"
3,"[1.0, 3.0, 5.0]",6,30,2676,"[2, 1, 3, 1, 2, 3, 2, 3]","[139, 199, 219, 299, 374, 298, 140, 359]"
1,"[3.0, 4.0, 2.0]",10,53,1538,"[3, 2, 1]","[239, 359, 579]"
2,"[4.0, 5.0, 2.0]",3,65,1333,[2],[976]
3,"[1.0, 6.0, 10.0]",27,12,2168,"[2, 3, 1, 2, 3]","[218, 301, 337, 518, 366]"
1,"[10.0, 8.0, 7.0]",24,10,1834,"[2, 3, 1, 2]","[418, 339, 478, 339]"
1,"[8.0, 6.0, 4.0]",27,18,1432,"[3, 1]","[258, 837]"
3,"[1.0, 2.0, 5.0]",12,68,1126,"[3, 1, 3]","[399, 200, 139]"
2,"[4.0, 6.0, 1.0]",30,56,1244,"[2, 1, 3, 2]","[259, 252, 280, 20]"
2,"[3.0, 5.0, 2.0]",21,57,1680,"[2, 1, 3, 1, 2]","[279, 279, 551, 159, 102]"
3,"[2.0, 4.0, 3.0]",7,17,10106,"[2, 1, 3, 1, 3, 2, 1, 3, 1]","[2073, 418, 159, 458, 1514, 1456, 677, 2572, 180]"
2,"[7.0, 4.0, 1.0]",22,3,3461,"[2, 1, 3, 2]","[459, 478, 717, 1416]"
2,"[1.0, 4.0, 2.0]",14,57,1756,"[1, 3, 2, 3]","[379, 338, 419, 300]"
2,"[1.0, 6.0, 3.0]",4,67,926,"[1, 3, 2]","[199, 179, 159]"
2,"[3.0, 6.0, 1.0]",13,30,2799,"[2, 1, 3, 2, 3, 1]","[119, 418, 140, 598, 233, 538]"
1,"[9.0, 10.0, 1.0]",23,25,4336,"[2, 3, 1, 2, 1]","[318, 499, 737, 897, 1076]"
1,"[4.0, 1.0, 2.0]",14,21,1818,"[2, 1, 3, 2]","[498, 359, 519, 100]"
3,"[4.0, 2.0, 5.0]",7,13,8313,"[1, 3, 1, 3, 2, 1, 3, 1, 2, 1]","[597, 200, 818, 1235, 758, 79, 298, 339, 1376, 1736]"
3,"[2.0, 4.0, 7.0]",14,65,2533,"[2, 1, 2, 1, 3]","[179, 239, 498, 438, 779]"
2,"[2.0, 10.0, 3.0]",7,42,6786,"[2, 3, 1, 3, 1, 2]","[1415, 199, 1813, 2113, 279, 539]"
2,"[3.0, 8.0, 2.0]",11,63,994,"[3, 1, 3]","[137, 318, 180]"
1,"[5.0, 2.0, 3.0]",5,83,1577,"[2, 1, 3]","[239, 218, 780]"
2,"[1.0, 3.0, 2.0]",4,55,1271,"[1, 2, 3]","[159, 398, 358]"
2,"[3.0, 9.0, 7.0]",22,18,1824,"[1, 2, 3, 1]","[298, 359, 359, 418]"
3,"[4.0, 2.0, 3.0]",14,50,2339,"[2, 1, 3, 1, 3]","[538, 319, 421, 317, 359]"
2,"[3.0, 1.0, 2.0]",4,66,1886,"[1, 3, 2, 3, 2]","[199, 199, 439, 498, 180]"
3,"[5.0, 6.0, 10.0]",2,62,990,"[3, 1]","[578, 20]"
1,"[2.0, 3.0, 1.0]",11,36,3970,"[2, 1, 3, 1, 2]","[356, 279, 380, 439, 2174]"
1,"[5.0, 4.0, 3.0]",2,85,1842,"[1, 3, 2, 1]","[139, 398, 279, 479]"
3,"[6.0, 3.0, 7.0]",5,60,2567,"[3, 1, 2, 3]","[199, 758, 414, 738]"
2,"[4.0, 8.0, 1.0]",24,67,3635,"[2, 1, 2, 1, 3, 2]","[572, 319, 857, 379, 977, 280]"
2,"[1.0, 3.0, 2.0]",11,42,1931,"[1, 3, 2, 1, 3]","[159, 383, 418, 518, 21]"
2,"[1.0, 5.0, 2.0]",4,7,2087,"[1, 3, 2, 1, 2, 1]","[139, 418, 558, 200, 279, 40]"
2,"[4.0, 8.0, 2.0]",10,59,1549,"[1, 2, 3]","[339, 299, 578]"
2,"[4.0, 6.0, 2.0]",21,2,2201,"[1, 3, 2]","[338, 299, 1117]"
3,"[1.0, 4.0, 2.0]",30,99,1752,"[3, 2, 1, 3]","[299, 220, 358, 459]"
2,"[6.0, 10.0, 4.0]",13,63,1224,"[1, 3, 1, 2, 3]","[100, 159, 140, 259, 139]"
1,"[5.0, 7.0, 6.0]",22,77,2208,"[2, 3, 2, 1, 3, 1]","[201, 278, 199, 260, 457, 419]"
2,"[3.0, 9.0, 8.0]",18,11,2203,"[2, 1, 3, 2]","[43, 457, 458, 738]"
3,"[3.0, 2.0, 6.0]",8,41,2181,"[1, 3]","[239, 1614]"
3,"[3.0, 2.0, 9.0]",29,17,2384,"[2, 3, 1]","[1097, 777, 180]"
1,"[6.0, 8.0, 4.0]",19,3,1734,"[2, 3, 1, 3, 1]","[20, 359, 358, 199, 221]"
1,"[3.0, 2.0, 1.0]",4,59,850,"[2, 1, 3]","[159, 304, 20]"
3,"[1.0, 2.0, 7.0]",1,9,1393,"[3, 1, 2, 3]","[298, 179, 180, 180]"
1,"[2.0, 1.0, 3.0]",14,30,3156,"[1, 3, 2, 1, 3, 1, 2, 1]","[280, 458, 239, 459, 558, 319, 299, 82]"
2,"[2.0, 4.0, 1.0]",21,74,9627,"[2, 1, 3, 2, 1, 2, 3, 1]","[100, 239, 376, 538, 1614, 2811, 199, 3269]"
2,"[8.0, 7.0, 6.0]",24,87,1541,"[1, 3, 2]","[198, 279, 619]"
2,"[2.0, 3.0, 1.0]",12,22,1230,"[3, 2, 1]","[278, 215, 318]"
1,"[7.0, 2.0, 1.0]",11,43,1653,"[2, 3, 1]","[318, 99, 682]"
1,"[10.0, 5.0, 4.0]",18,4,1873,"[2, 1, 2, 3, 2, 1]","[198, 279, 337, 258, 299, 41]"
2,"[4.0, 7.0, 2.0]",21,87,1618,"[1, 2, 3, 1, 2]","[418, 219, 279, 239, 120]"
1,"[3.0, 4.0, 2.0]",13,99,1121,"[2, 1, 3]","[179, 219, 179]"
1,"[7.0, 5.0, 8.0]",15,29,2190,"[2, 1, 3, 1]","[239, 458, 341, 559]"
3,"[8.0, 6.0, 5.0]",16,50,4509,"[2, 3, 1, 2, 3, 2, 3]","[338, 439, 418, 877, 378, 419, 1156]"
3,"[2.0, 4.0, 3.0]",13,9,4007,"[1, 3, 2, 1, 3]","[199, 399, 239, 937, 1575]"
2,"[4.0, 5.0, 1.0]",2,35,2470,"[1, 3, 2, 3, 1, 2]","[339, 259, 439, 479, 338, 139]"
2,"[3.0, 9.0, 4.0]",18,42,2797,"[2, 1, 3, 2]","[854, 339, 437, 818]"
2,"[4.0, 7.0, 2.0]",7,88,5791,"[2, 1, 3, 2]","[1913, 1137, 1973, 260]"
3,"[4.0, 2.0, 1.0]",14,69,2121,"[2, 3, 1, 2, 3, 1, 3]","[319, 159, 418, 339, 360, 59, 20]"
2,"[2.0, 6.0, 3.0]",28,82,1881,"[2, 3, 1, 2]","[239, 239, 577, 479]"
1,"[4.0, 1.0, 2.0]",14,97,1057,"[2, 1, 3]","[219, 338, 220]"
2,"[1.0, 2.0, 6.0]",12,89,1200,"[2, 3, 1, 2]","[164, 119, 112, 144]"
3,"[1.0, 3.0, 4.0]",24,43,3451,"[2, 3, 1, 3, 2, 3]","[755, 279, 537, 558, 578, 318]"
2,"[9.0, 5.0, 2.0]",7,87,2476,"[2, 1, 2]","[339, 1097, 260]"
2,"[5.0, 3.0, 1.0]",10,51,1632,"[3, 1, 2]","[179, 239, 818]"
3,"[4.0, 6.0, 5.0]",16,2,9112,"[1, 3, 2, 1, 3, 2, 3]","[736, 598, 2412, 697, 897, 2929, 358]"
2,"[2.0, 7.0, 3.0]",9,6,1078,"[2, 1, 3, 2]","[239, 120, 179, 81]"
1,"[3.0, 2.0, 1.0]",12,92,1597,"[2, 1, 3, 2, 1]","[139, 200, 180, 379, 320]"
1,"[8.0, 5.0, 7.0]",27,1,2024,"[3, 1, 2, 3, 1]","[199, 259, 220, 458, 477]"
1,"[4.0, 5.0, 1.0]",30,20,1724,"[2, 3, 1]","[160, 438, 617]"
1,"[5.0, 1.0, 4.0]",16,89,6460,"[1, 3, 2, 3, 1]","[536, 2450, 1375, 378, 1139]"
1,"[10.0, 6.0, 3.0]",20,97,941,[1],[213]
3,"[1.0, 3.0, 2.0]",1,94,988,"[3, 1, 2]","[338, 218, 100]"
3,"[5.0, 2.0, 9.0]",29,29,2012,"[2, 1, 3]","[235, 458, 937]"
1,"[7.0, 2.0, 3.0]",24,23,2865,"[1, 3, 2, 1, 3, 2, 1]","[318, 438, 439, 217, 419, 179, 379]"
2,"[5.0, 4.0, 6.0]",4,10,2067,"[2, 1, 3, 2]","[379, 239, 578, 518]"
3,"[1.0, 2.0, 3.0]",3,63,2258,"[1, 3, 2]","[377, 757, 240]"
2,"[1.0, 3.0, 2.0]",14,60,1764,"[1, 3, 2]","[299, 362, 786]"
1,"[5.0, 3.0, 1.0]",5,48,1314,"[2, 1, 3]","[339, 240, 398]"
1,"[10.0, 6.0, 1.0]",13,85,1313,"[2, 1, 2, 1, 3]","[179, 219, 239, 138, 100]"
3,"[1.0, 2.0, 3.0]",1,68,1312,"[3, 2, 1, 3]","[398, 239, 239, 119]"
1,"[9.0, 4.0, 2.0]",29,57,1815,"[1, 3, 1, 2, 1]","[202, 379, 319, 379, 81]"
1,"[5.0, 3.0, 2.0]",5,96,2277,"[2, 1, 3, 1]","[219, 359, 418, 817]"
1,"[4.0, 5.0, 1.0]",13,92,2474,"[2, 1, 3, 2, 1, 3]","[160, 277, 259, 578, 339, 379]"
2,"[2.0, 4.0, 3.0]",21,9,2614,"[2, 1, 3, 2]","[239, 239, 576, 1098]"
3,"[7.0, 2.0, 3.0]",9,10,962,"[2, 3, 1]","[239, 279, 181]"
2,"[6.0, 3.0, 5.0]",15,63,1575,"[3, 2, 1, 3]","[299, 339, 279, 239]"
3,"[3.0, 1.0, 8.0]",2,76,1199,"[3, 1, 2]","[498, 120, 221]"
3,"[3.0, 1.0, 4.0]",12,76,1042,"[3, 2, 3]","[179, 139, 320]"
1,"[8.0, 1.0, 4.0]",15,59,894,"[2, 1, 3]","[200, 260, 138]"
1,"[6.0, 4.0, 10.0]",23,99,1895,"[2, 3, 1]","[199, 401, 920]"
2,"[2.0, 7.0, 4.0]",30,90,1100,"[2, 3, 1, 2]","[180, 238, 265, 61]"
1,"[7.0, 2.0, 3.0]",21,11,6934,"[1, 3, 2, 1, 3, 1, 2, 1]","[318, 1295, 160, 777, 2154, 796, 338, 458]"
3,"[8.0, 2.0, 4.0]",10,20,3425,"[2, 1, 3, 2, 3, 1, 3]","[139, 458, 798, 399, 575, 479, 60]"
3,"[1.0, 2.0, 4.0]",3,80,2211,"[1, 2, 3, 1]","[458, 196, 438, 139]"
2,"[2.0, 5.0, 3.0]",10,67,1785,"[2, 1, 2, 3, 2]","[40, 219, 598, 498, 20]"
3,"[10.0, 2.0, 8.0]",27,49,1828,"[2, 3, 1, 2, 3]","[179, 238, 299, 498, 220]"
3,"[2.0, 1.0, 5.0]",11,56,2223,"[3, 1, 2, 3, 2]","[119, 299, 300, 763, 178]"
1,"[5.0, 4.0, 2.0]",5,27,1486,"[2, 1, 3, 2]","[278, 279, 339, 240]"
3,"[4.0, 1.0, 5.0]",2,18,3211,"[1, 2, 3, 1, 3]","[339, 299, 1370, 358, 181]"
2,"[5.0, 7.0, 4.0]",12,57,857,"[3, 1, 2]","[259, 198, 80]"
2,"[1.0, 3.0, 6.0]",1,15,864,"[2, 3]","[258, 238]"
2,"[3.0, 2.0, 1.0]",17,4,2789,"[2, 1, 3, 2, 3]","[179, 159, 280, 199, 716]"
3,"[2.0, 1.0, 3.0]",4,99,1924,"[2, 1, 3, 2, 3]","[278, 279, 439, 418, 100]"
1,"[6.0, 5.0, 2.0]",6,33,4040,"[2, 1, 3, 2, 1]","[199, 259, 418, 597, 2113]"
2,"[8.0, 5.0, 3.0]",19,45,1624,"[3, 1, 2]","[178, 202, 898]"
3,"[3.0, 2.0, 4.0]",13,69,1632,"[1, 3, 2]","[219, 677, 380]"
1,"[8.0, 4.0, 2.0]",19,42,1651,"[2, 3, 1, 2]","[99, 219, 621, 299]"
1,"[9.0, 6.0, 2.0]",30,97,1585,"[3, 2, 1]","[239, 378, 578]"
1,"[4.0, 2.0, 1.0]",3,4,1376,"[1, 3]","[437, 598]"
1,"[5.0, 2.0, 4.0]",5,20,2119,"[2, 1, 3, 1]","[378, 300, 657, 459]"
1,"[4.0, 2.0, 7.0]",4,94,683,"[1, 2]","[398, 21]"
3,"[4.0, 5.0, 8.0]",18,62,2273,"[1, 3, 2, 3]","[596, 379, 540, 397]"
1,"[8.0, 1.0, 3.0]",30,85,1693,"[3, 1, 2, 3]","[397, 519, 279, 119]"
3,"[1.0, 3.0, 2.0]",1,53,1246,"[2, 3, 1, 2]","[158, 219, 199, 359]"
3,"[5.0, 1.0, 3.0]",20,6,1680,"[3, 2, 1, 3]","[327, 275, 278, 199]"
3,"[3.0, 7.0, 9.0]",20,95,768,[3],[99]
2,"[5.0, 10.0, 6.0]",28,52,1366,"[2, 1, 3, 2]","[259, 200, 201, 297]"
3,"[2.0, 3.0, 7.0]",13,22,1754,"[1, 3, 2, 3]","[676, 259, 339, 79]"
3,"[4.0, 2.0, 3.0]",10,86,1541,"[2, 1, 3]","[20, 519, 664]"
1,"[8.0, 2.0, 6.0]",5,100,1341,"[2, 1, 3]","[338, 379, 260]"
2,"[4.0, 3.0, 1.0]",14,39,1955,"[1, 3, 2]","[657, 358, 618]"
3,"[6.0, 2.0, 10.0]",22,25,1185,"[2, 3]","[159, 717]"
1,"[8.0, 3.0, 5.0]",25,8,3086,"[1, 2, 3, 1]","[1038, 399, 518, 658]"
2,"[3.0, 5.0, 2.0]",14,81,1996,"[2, 1, 3, 2]","[239, 318, 380, 599]"
2,"[1.0, 5.0, 3.0]",6,76,2175,"[2, 1, 2, 3, 1, 3, 2]","[120, 199, 180, 120, 239, 382, 372]"
3,"[2.0, 1.0, 3.0]",14,15,1377,"[2, 1, 3]","[239, 219, 618]"
2,"[6.0, 10.0, 7.0]",23,54,1647,"[1, 2, 3, 1]","[318, 558, 239, 180]"
3,"[1.0, 3.0, 2.0]",12,60,2057,"[2, 1, 3]","[319, 457, 498]"
1,"[7.0, 4.0, 3.0]",7,6,4860,"[1, 2, 1, 3, 2, 3, 1]","[40, 20, 858, 462, 1116, 916, 557]"
1,"[3.0, 1.0, 5.0]",6,39,7768,"[2, 1, 3, 1, 2, 1, 3, 1, 2, 3, 1]","[678, 439, 478, 1057, 459, 439, 458, 394, 697, 676, 1148]"
2,"[1.0, 2.0, 3.0]",11,7,3370,"[2, 1, 3, 2, 3, 1, 2, 1, 2]","[241, 219, 319, 299, 297, 519, 279, 179, 498]"
2,"[1.0, 6.0, 4.0]",2,7,1634,"[2, 1, 3, 2]","[318, 239, 518, 140]"
1,"[4.0, 1.0, 2.0]",3,97,1902,"[3, 1]","[319, 578]"
2,"[4.0, 8.0, 3.0]",24,66,1746,"[1, 3, 2]","[418, 259, 678]"
1,"[3.0, 8.0, 2.0]",10,64,1120,[1],[818]
3,"[3.0, 4.0, 7.0]",14,3,1896,"[2, 1, 3, 2, 3]","[339, 239, 241, 299, 379]"
2,"[1.0, 5.0, 4.0]",2,34,2515,"[2, 1, 3, 2]","[279, 140, 278, 1096]"
1,"[8.0, 1.0, 3.0]",20,82,1430,"[1, 3, 1]","[258, 338, 279]"
3,"[3.0, 1.0, 6.0]",2,48,1910,"[1, 3, 2, 1, 3]","[179, 378, 140, 338, 300]"
3,"[4.0, 1.0, 3.0]",20,64,1147,"[1, 3, 2]","[206, 122, 157]"
2,"[1.0, 10.0, 4.0]",23,48,1350,"[1, 2, 3]","[282, 299, 423]"
3,"[1.0, 3.0, 7.0]",1,91,748,"[2, 3, 1]","[79, 218, 159]"
3,"[3.0, 4.0, 8.0]",15,77,1715,"[1, 3, 2, 3]","[259, 378, 379, 200]"
3,"[1.0, 3.0, 7.0]",20,63,1000,"[1, 3]","[140, 182]"
3,"[9.0, 7.0, 3.0]",22,97,1687,"[2, 3, 1, 3]","[278, 339, 355, 259]"
3,"[3.0, 1.0, 7.0]",1,26,1302,"[2, 3, 1, 2, 3]","[119, 239, 159, 319, 121]"
2,"[3.0, 2.0, 1.0]",17,20,2242,"[2, 3, 1, 2, 1, 2]","[537, 339, 219, 122, 219, 57]"
3,"[8.0, 4.0, 3.0]",26,66,1502,"[2, 3, 2]","[357, 698, 100]"
2,"[2.0, 4.0, 3.0]",8,32,2911,"[2, 3, 1, 2]","[399, 418, 439, 1255]"
2,"[7.0, 6.0, 2.0]",24,20,4214,"[2, 3, 1, 2, 3, 1, 2, 1, 2]","[399, 379, 339, 419, 618, 219, 798, 219, 379]"
3,"[7.0, 2.0, 10.0]",22,62,1589,"[1, 3, 2, 3]","[196, 136, 279, 518]"
3,"[4.0, 1.0, 9.0]",22,21,2024,"[1, 3, 2, 3]","[358, 438, 299, 378]"
3,"[4.0, 2.0, 8.0]",19,58,1141,"[3, 2, 1]","[378, 198, 120]"
3,"[1.0, 3.0, 5.0]",30,41,2337,"[1, 2, 3, 2, 3]","[201, 377, 678, 578, 101]"
3,"[3.0, 4.0, 7.0]",15,97,1352,"[3, 1, 3]","[179, 379, 341]"
2,"[3.0, 6.0, 2.0]",5,80,2510,"[2, 1, 3, 2, 1, 2]","[298, 259, 439, 178, 418, 340]"
1,"[8.0, 4.0, 2.0]",13,29,1462,"[1, 3, 2, 3]","[299, 218, 388, 21]"
2,"[3.0, 4.0, 2.0]",10,92,1879,"[1, 2, 3]","[319, 1017, 220]"
2,"[3.0, 7.0, 2.0]",28,74,1683,"[2, 1, 3, 2]","[219, 239, 318, 479]"
1,"[3.0, 8.0, 4.0]",22,89,1913,"[2, 1, 3, 1, 2]","[282, 180, 339, 439, 239]"
1,"[10.0, 1.0, 3.0]",13,49,1252,"[1, 3, 2]","[298, 399, 20]"
2,"[2.0, 6.0, 5.0]",9,94,1079,"[2, 1, 2, 3]","[119, 318, 320, 20]"
2,"[2.0, 6.0, 1.0]",29,83,1759,"[3, 1, 2]","[98, 379, 638]"
2,"[5.0, 7.0, 2.0]",28,69,1342,"[1, 3, 2]","[219, 299, 439]"
3,"[4.0, 5.0, 2.0]",28,9,3351,"[3, 1, 2, 3, 1, 3]","[197, 318, 438, 798, 775, 380]"
2,"[2.0, 4.0, 3.0]",21,49,1339,"[1, 3, 2]","[239, 480, 301]"
3,"[1.0, 3.0, 10.0]",4,19,843,"[2, 1, 3]","[22, 139, 323]"
2,"[2.0, 5.0, 4.0]",16,95,8466,"[2, 1, 3, 2, 3, 1, 2, 3, 1, 2]","[418, 518, 140, 299, 2950, 558, 1574, 581, 459, 378]"
1,"[10.0, 5.0, 3.0]",4,69,822,"[2, 1]","[199, 358]"
1,"[2.0, 8.0, 5.0]",22,74,2465,"[1, 2, 3, 1, 3, 1]","[179, 438, 359, 418, 258, 339]"
1,"[10.0, 8.0, 5.0]",25,54,5135,"[2, 1, 2, 3, 2, 1]","[339, 2233, 360, 479, 735, 518]"
1,"[1.0, 2.0, 3.0]",12,61,1389,"[3, 2, 1]","[199, 240, 359]"
1,"[5.0, 3.0, 4.0]",21,40,1818,"[2, 1, 3, 2, 1]","[180, 200, 418, 478, 201]"
2,"[5.0, 6.0, 1.0]",29,86,1997,"[2, 3, 1, 2]","[316, 221, 559, 519]"
2,"[7.0, 8.0, 2.0]",16,8,4416,"[2, 1, 3, 2]","[1614, 617, 1037, 777]"
1,"[4.0, 3.0, 2.0]",10,45,851,"[1, 2]","[338, 179]"
3,"[3.0, 7.0, 9.0]",15,65,1309,"[3, 1, 2]","[256, 259, 279]"
2,"[2.0, 10.0, 6.0]",13,13,2863,"[1, 3, 2, 1, 3, 1]","[319, 399, 399, 260, 518, 159]"
3,"[3.0, 8.0, 7.0]",24,85,1480,"[2, 3, 1, 2]","[336, 359, 159, 307]"
1,"[2.0, 4.0, 1.0]",21,29,9075,"[2, 1, 3, 1, 2, 1, 2, 1, 3, 2, 1]","[358, 219, 560, 379, 737, 1574, 877, 2313, 280, 358, 798]"
1,"[5.0, 6.0, 1.0]",26,88,5637,"[3, 1, 2, 3, 1, 3, 1, 2, 3, 1, 2, 1]","[278, 308, 478, 437, 519, 239, 438, 399, 636, 219, 518, 478]"
1,"[6.0, 7.0, 3.0]",25,38,6810,"[2, 1, 2, 3, 1, 3, 1]","[399, 837, 1375, 815, 1155, 737, 916]"
3,"[4.0, 3.0, 7.0]",28,50,1666,"[1, 2, 3, 1]","[279, 380, 399, 237]"
1,"[7.0, 3.0, 1.0]",30,72,1567,"[3, 2, 1]","[257, 398, 538]"
3,"[1.0, 2.0, 3.0]",21,27,13110,"[1, 3, 1, 3, 2, 3, 1, 3, 2, 3, 1, 3]","[299, 438, 1076, 359, 559, 438, 319, 3050, 518, 2632, 279, 2570]"
1,"[7.0, 3.0, 1.0]",7,40,3261,"[1, 3, 2, 1]","[1235, 517, 658, 478]"
3,"[6.0, 3.0, 4.0]",30,51,1518,"[2, 1, 3]","[478, 339, 558]"
2,"[5.0, 8.0, 7.0]",16,100,2075,"[2, 3, 1, 2]","[538, 339, 577, 260]"
3,"[2.0, 4.0, 3.0]",24,7,5909,"[3, 2, 1, 3, 1, 2, 3, 1]","[517, 320, 698, 299, 661, 1141, 498, 1037]"
2,"[4.0, 6.0, 1.0]",30,94,2557,"[3, 1, 2, 3, 1, 2]","[259, 278, 498, 319, 479, 240]"
1,"[8.0, 4.0, 5.0]",15,81,1058,"[3, 1]","[159, 600]"
1,"[3.0, 1.0, 4.0]",14,56,1404,"[1, 3, 2, 1]","[240, 577, 139, 60]"
3,"[1.0, 2.0, 6.0]",13,42,2634,"[2, 1, 3, 1, 2, 1, 3]","[139, 259, 419, 219, 538, 299, 122]"
1,"[6.0, 3.0, 2.0]",29,24,2084,"[2, 1, 3, 1]","[119, 259, 839, 439]"
2,"[4.0, 1.0, 3.0]",4,70,1359,"[1, 3, 1]","[418, 258, 20]"
1,"[9.0, 3.0, 2.0]",11,12,1145,"[2, 1]","[139, 678]"
2,"[3.0, 4.0, 6.0]",6,66,1350,"[3, 1, 2]","[218, 200, 499]"
2,"[6.0, 9.0, 8.0]",22,40,1713,"[1, 2, 3, 2]","[378, 419, 320, 119]"
1,"[6.0, 5.0, 3.0]",28,33,3196,"[1, 3, 2, 1, 2, 1]","[298, 277, 333, 856, 319, 438]"
2,"[2.0, 3.0, 1.0]",1,38,1521,"[2, 1, 3, 2]","[239, 338, 239, 402]"
3,"[5.0, 6.0, 9.0]",24,90,936,"[2, 3]","[477, 220]"
1,"[4.0, 3.0, 2.0]",18,10,4704,"[1, 2, 3, 1, 2, 3, 1, 3, 1]","[735, 339, 417, 499, 438, 278, 837, 279, 359]"
3,"[6.0, 7.0, 8.0]",15,95,1918,"[1, 3, 1, 2, 3]","[179, 239, 379, 339, 399]"
3,"[2.0, 3.0, 5.0]",30,18,2924,"[2, 1, 3, 2, 3]","[219, 319, 718, 560, 639]"
3,"[2.0, 3.0, 6.0]",30,55,1263,"[2, 3, 1, 3]","[160, 399, 259, 65]"
2,"[1.0, 2.0, 3.0]",8,63,1337,"[2, 3, 1, 2]","[239, 259, 299, 121]"
3,"[1.0, 3.0, 6.0]",24,77,2000,"[2, 3, 1, 2, 3]","[571, 399, 299, 299, 20]"
3,"[7.0, 1.0, 10.0]",24,41,1521,"[1, 3, 2, 3]","[435, 379, 318, 22]"
2,"[7.0, 3.0, 6.0]",25,74,4699,"[1, 3, 2, 3, 2]","[257, 478, 2712, 757, 60]"
2,"[2.0, 3.0, 1.0]",12,39,1363,"[3, 1, 2]","[199, 299, 459]"
3,"[3.0, 4.0, 6.0]",9,14,886,"[2, 1, 3]","[219, 179, 200]"
2,"[1.0, 6.0, 2.0]",21,58,1611,"[1, 2, 3, 2]","[397, 358, 419, 80]"
1,"[1.0, 2.0, 3.0]",12,6,1079,"[2, 3, 1, 2]","[159, 199, 160, 260]"
1,"[9.0, 6.0, 5.0]",27,36,1619,"[3, 1, 2]","[419, 479, 180]"
1,"[6.0, 5.0, 1.0]",29,10,2049,"[2, 3, 1]","[315, 302, 1016]"
1,"[7.0, 8.0, 3.0]",19,83,1047,"[2, 1, 3]","[139, 419, 40]"
3,"[1.0, 6.0, 3.0]",6,8,4192,"[2, 3, 1, 3, 2, 1, 3]","[836, 240, 438, 498, 518, 818, 298]"
3,"[7.0, 3.0, 8.0]",15,62,1434,"[2, 1, 3]","[179, 219, 697]"
2,"[3.0, 5.0, 1.0]",10,44,2826,"[3, 1, 2, 1, 2]","[439, 438, 558, 718, 200]"
1,"[10.0, 8.0, 7.0]",22,34,1446,"[2, 1, 3]","[197, 338, 558]"
1,"[4.0, 1.0, 8.0]",11,71,1863,"[2, 1, 3, 1]","[197, 258, 640, 379]"
1,"[6.0, 2.0, 1.0]",5,88,2163,"[1, 3, 2, 1, 3]","[179, 378, 499, 298, 219]"
3,"[5.0, 7.0, 4.0]",25,49,4335,"[1, 2, 3, 2, 1, 3]","[338, 359, 914, 995, 318, 818]"
1,"[6.0, 4.0, 7.0]",9,92,852,"[1, 2, 3]","[237, 258, 60]"
1,"[6.0, 1.0, 4.0]",15,10,1569,"[1, 3, 2, 1]","[298, 319, 359, 199]"
3,"[4.0, 6.0, 9.0]",27,80,1903,"[1, 2, 3, 1]","[219, 340, 236, 539]"
3,"[7.0, 3.0, 2.0]",9,16,877,"[2, 3, 1]","[159, 339, 119]"
2,"[1.0, 3.0, 2.0]",12,28,1221,"[2, 1, 3, 2]","[180, 220, 219, 200]"
2,"[3.0, 4.0, 1.0]",12,43,1446,"[2, 1, 3, 2]","[219, 198, 199, 458]"
1,"[8.0, 5.0, 3.0]",28,36,1480,"[1, 3, 2, 1]","[478, 260, 259, 139]"
1,"[7.0, 8.0, 2.0]",24,17,4182,"[2, 3, 1, 3, 2, 1, 3, 2, 1]","[537, 199, 738, 459, 498, 717, 318, 219, 20]"
1,"[7.0, 2.0, 3.0]",1,95,1115,"[2, 1, 3, 1]","[199, 219, 299, 80]"
2,"[9.0, 10.0, 8.0]",18,72,2445,"[2, 1, 2, 1, 3, 2]","[278, 119, 955, 199, 379, 121]"
2,"[6.0, 4.0, 3.0]",19,29,1256,"[2, 3, 1]","[205, 318, 440]"
3,"[1.0, 2.0, 3.0]",4,29,1272,"[1, 3, 2]","[160, 598, 219]"
1,"[8.0, 3.0, 6.0]",16,94,2617,"[2, 1, 3, 1, 2]","[358, 258, 694, 777, 101]"
2,"[2.0, 10.0, 3.0]",23,79,1735,"[1, 2, 3, 1]","[200, 459, 600, 101]"
3,"[2.0, 3.0, 8.0]",5,25,1510,"[2, 1, 3, 2]","[398, 339, 358, 19]"
3,"[4.0, 5.0, 3.0]",7,31,2558,"[1, 3]","[1076, 1217]"
1,"[10.0, 5.0, 9.0]",18,88,2485,"[2, 3, 1, 3, 1]","[578, 99, 457, 496, 419]"
1,"[3.0, 2.0, 1.0]",7,59,7471,"[1, 3, 2, 1]","[2970, 1036, 1993, 1096]"
2,"[2.0, 4.0, 1.0]",14,72,2503,"[1, 3, 2, 1]","[498, 319, 379, 956]"
3,"[5.0, 6.0, 3.0]",30,37,2954,"[2, 3, 1, 3, 2, 1]","[438, 259, 312, 479, 597, 201]"
2,"[2.0, 6.0, 5.0]",5,54,1919,"[1, 2, 3, 1]","[319, 220, 479, 280]"
2,"[1.0, 4.0, 2.0]",4,9,1705,"[1, 3, 2]","[359, 339, 698]"
1,"[9.0, 1.0, 4.0]",22,15,1842,"[2, 1, 3, 1]","[418, 378, 219, 459]"
2,"[1.0, 5.0, 2.0]",29,60,1908,"[1, 3, 2]","[278, 349, 918]"
1,"[4.0, 3.0, 5.0]",6,68,1674,"[2, 1, 3, 1]","[278, 240, 260, 459]"
1,"[5.0, 3.0, 1.0]",7,48,11270,"[1, 3, 2, 1, 3, 1, 2, 1, 3, 1]","[358, 378, 4545, 657, 239, 997, 20, 20, 1535, 1516]"
1,"[5.0, 2.0, 3.0]",21,3,7255,"[2, 1, 3, 2, 3, 1]","[278, 734, 1276, 259, 1335, 2791]"
1,"[6.0, 4.0, 5.0]",2,69,1590,"[1, 3, 2, 1]","[577, 299, 239, 80]"
1,"[9.0, 1.0, 4.0]",12,78,1105,"[3, 1, 2, 3]","[100, 219, 160, 239]"
3,"[3.0, 2.0, 4.0]",8,12,3566,"[2, 1, 3, 2, 3, 1]","[298, 339, 339, 915, 737, 259]"
2,"[6.0, 7.0, 1.0]",14,68,2419,"[1, 2, 1, 3, 2]","[598, 260, 419, 498, 261]"
3,"[1.0, 2.0, 8.0]",17,10,1869,"[1, 2, 3, 1, 3]","[79, 179, 358, 299, 159]"
2,"[7.0, 10.0, 6.0]",23,21,2825,"[1, 2, 3, 2]","[159, 537, 917, 697]"
1,"[6.0, 8.0, 7.0]",24,92,1994,"[2, 3, 1, 2, 1]","[437, 398, 260, 378, 162]"
2,"[2.0, 3.0, 7.0]",16,31,9382,"[2, 3, 1, 3, 2, 3, 1, 2]","[597, 499, 697, 498, 1376, 1894, 1175, 2054]"
2,"[5.0, 10.0, 3.0]",26,44,1283,"[2, 3]","[469, 379]"
2,"[6.0, 2.0, 7.0]",22,38,2510,"[2, 3, 1, 2, 3, 2]","[159, 140, 618, 598, 219, 280]"
3,"[8.0, 7.0, 9.0]",27,47,1018,"[2, 3]","[258, 500]"
2,"[3.0, 5.0, 2.0]",28,3,4990,"[2, 3, 1, 2, 3, 2]","[257, 259, 512, 1296, 20, 1774]"
1,"[4.0, 1.0, 5.0]",15,68,1584,"[3, 1, 2, 3]","[199, 279, 359, 358]"
2,"[3.0, 2.0, 4.0]",3,49,2352,"[1, 2]","[159, 239]"
2,"[3.0, 4.0, 1.0]",3,25,1413,[2],[517]
2,"[4.0, 5.0, 3.0]",29,8,2455,"[1, 2, 3, 1, 2]","[199, 599, 298, 688, 259]"
3,"[6.0, 5.0, 3.0]",5,28,2698,"[2, 1, 3, 2, 3, 1]","[398, 278, 340, 757, 379, 61]"
2,"[6.0, 5.0, 2.0]",6,81,1960,"[1, 3, 2]","[397, 697, 440]"
1,"[8.0, 5.0, 4.0]",28,95,1563,"[2, 3, 1, 2]","[219, 221, 420, 297]"
2,"[1.0, 7.0, 4.0]",15,41,1513,"[1, 2, 3, 2]","[259, 299, 359, 179]"
3,"[2.0, 1.0, 3.0]",12,19,978,"[3, 2, 1]","[218, 141, 161]"
3,"[2.0, 3.0, 5.0]",14,92,1615,"[1, 2, 3, 1]","[299, 359, 458, 160]"
3,"[3.0, 4.0, 10.0]",17,67,694,[3],[339]
3,"[5.0, 2.0, 8.0]",8,40,4846,"[1, 2, 1, 3, 1, 2, 3]","[455, 995, 179, 379, 518, 798, 320]"
1,"[2.0, 4.0, 3.0]",3,26,1294,[2],[933]
2,"[4.0, 8.0, 5.0]",18,40,3714,"[2, 1, 3, 1, 2]","[797, 637, 419, 326, 1196]"
3,"[5.0, 1.0, 6.0]",8,34,938,[3],[597]
3,"[3.0, 1.0, 5.0]",6,70,2047,"[1, 2, 3]","[338, 498, 857]"
1,"[5.0, 2.0, 6.0]",5,47,1493,"[1, 3, 2, 1]","[318, 359, 319, 139]"
3,"[3.0, 5.0, 6.0]",16,4,6437,"[2, 3, 1, 3, 2, 3, 2, 3]","[637, 498, 1575, 697, 638, 1096, 539, 119]"
2,"[6.0, 9.0, 3.0]",9,100,734,"[2, 3]","[179, 278]"
1,"[6.0, 3.0, 5.0]",6,65,1581,"[1, 2, 3, 1]","[338, 259, 359, 201]"
3,"[5.0, 2.0, 6.0]",21,23,8104,"[2, 1, 3, 1, 3, 1, 3]","[238, 338, 740, 738, 3149, 1415, 777]"
1,"[4.0, 1.0, 3.0]",17,11,3106,"[2, 3, 1, 2, 1, 2, 1]","[159, 139, 139, 199, 896, 473, 62]"
1,"[8.0, 2.0, 1.0]",11,67,1294,"[1, 3, 2, 1]","[296, 199, 319, 20]"
1,"[4.0, 3.0, 2.0]",17,77,1199,"[3, 1, 2]","[159, 518, 141]"
2,"[4.0, 8.0, 9.0]",18,33,4546,"[1, 3, 2, 3, 2, 3, 2]","[498, 344, 438, 618, 618, 877, 578]"
2,"[3.0, 8.0, 7.0]",9,74,861,"[2, 3, 2]","[179, 179, 221]"
2,"[1.0, 4.0, 5.0]",29,77,5408,"[3, 2, 1, 3, 2, 3, 1, 2]","[398, 398, 517, 1057, 677, 413, 559, 719]"
2,"[4.0, 7.0, 1.0]",11,66,674,"[1, 2]","[136, 238]"
3,"[8.0, 3.0, 5.0]",26,80,2069,"[3, 1, 2, 3, 1]","[358, 239, 419, 378, 319]"
1,"[6.0, 2.0, 5.0]",5,76,1769,"[2, 1, 3, 1]","[537, 260, 517, 60]"
1,"[1.0, 6.0, 2.0]",20,89,2770,"[1, 2, 1, 2, 1]","[120, 358, 305, 260, 582]"
1,"[8.0, 5.0, 7.0]",25,100,2182,"[1, 2, 3, 1]","[398, 379, 598, 441]"
1,"[3.0, 6.0, 4.0]",8,10,2517,"[1, 3, 2, 1]","[239, 917, 106, 680]"
2,"[3.0, 5.0, 1.0]",14,10,2457,"[2, 1, 3, 1, 2]","[1156, 179, 198, 180, 259]"
3,"[4.0, 6.0, 8.0]",19,98,1015,"[2, 3, 1]","[159, 318, 159]"
1,"[10.0, 7.0, 6.0]",28,26,1249,"[2, 1, 3, 1]","[219, 299, 277, 39]"
1,"[2.0, 3.0, 1.0]",12,16,1248,"[3, 1, 3, 1]","[199, 220, 279, 79]"
1,"[8.0, 4.0, 6.0]",15,88,1445,"[3, 1, 2, 1]","[278, 319, 379, 60]"
1,"[10.0, 4.0, 7.0]",23,39,2237,"[2, 1, 2, 3]","[238, 299, 361, 958]"
1,"[2.0, 1.0, 5.0]",13,7,2413,"[2, 1, 3, 2, 1, 3]","[159, 239, 219, 418, 219, 340]"
1,"[2.0, 3.0, 4.0]",25,77,2687,"[2, 1, 3, 2, 1]","[261, 459, 421, 309, 618]"
3,"[8.0, 1.0, 4.0]",12,24,1319,"[2, 3, 2, 1, 3]","[100, 538, 140, 200, 20]"
2,"[2.0, 5.0, 3.0]",5,17,2010,"[1, 3, 2, 1]","[219, 479, 259, 599]"
2,"[1.0, 3.0, 6.0]",12,82,2114,"[2, 3, 1, 2, 3, 2]","[236, 159, 459, 279, 278, 221]"
1,"[7.0, 3.0, 6.0]",25,30,11634,"[1, 3, 2, 1, 2, 3, 2, 1]","[458, 476, 2073, 3986, 1455, 798, 877, 957]"
2,"[1.0, 4.0, 3.0]",11,35,1881,"[1, 3, 2]","[298, 279, 957]"
3,"[3.0, 2.0, 5.0]",28,1,4320,"[1, 3, 2, 1, 3, 1, 2, 1]","[219, 379, 379, 697, 599, 680, 638, 80]"
3,"[2.0, 7.0, 10.0]",22,44,1785,"[1, 2, 1, 3]","[199, 139, 239, 838]"
2,"[3.0, 4.0, 1.0]",17,90,947,[1],[180]
2,"[9.0, 7.0, 5.0]",19,89,981,"[2, 1]","[219, 461]"
1,"[10.0, 5.0, 3.0]",16,35,4832,"[1, 3, 2, 1]","[836, 877, 1076, 1695]"
1,"[3.0, 2.0, 1.0]",10,57,1575,"[2, 1, 3, 1]","[119, 378, 419, 259]"
1,"[9.0, 3.0, 4.0]",27,61,1510,"[2, 3, 1, 3]","[278, 219, 518, 100]"
1,"[10.0, 5.0, 7.0]",28,65,839,"[1, 3]","[154, 261]"
1,"[8.0, 2.0, 1.0]",2,32,2167,"[2, 1, 3, 2, 1]","[239, 618, 219, 179, 539]"
3,"[5.0, 1.0, 10.0]",7,90,5028,"[2, 1, 3]","[1874, 1196, 1436]"
1,"[10.0, 7.0, 2.0]",22,30,1753,"[2, 1]","[677, 758]"
3,"[8.0, 2.0, 9.0]",19,32,716,[3],[438]
1,"[10.0, 9.0, 4.0]",23,92,2319,"[1, 2, 3, 1]","[259, 599, 439, 595]"
1,"[4.0, 2.0, 1.0]",17,37,1775,"[2, 1, 3, 1]","[100, 438, 280, 459]"
1,"[6.0, 2.0, 5.0]",28,71,2779,"[3, 1, 2, 3, 1, 3]","[175, 299, 419, 219, 776, 279]"
3,"[7.0, 6.0, 10.0]",22,11,1346,"[2, 3]","[398, 659]"
2,"[3.0, 10.0, 4.0]",4,50,1091,"[1, 2, 3]","[160, 280, 260]"
2,"[3.0, 9.0, 4.0]",18,31,2836,"[1, 3, 2]","[677, 558, 1216]"
3,"[7.0, 2.0, 1.0]",24,5,3798,"[2, 3, 1, 3, 2, 3, 1, 2]","[557, 220, 698, 219, 439, 558, 400, 239]"
2,"[6.0, 3.0, 1.0]",8,14,2860,"[2, 1, 3, 2]","[1315, 399, 418, 339]"
3,"[1.0, 2.0, 7.0]",11,90,1366,"[1, 3, 2, 3]","[318, 519, 199, 20]"
1,"[4.0, 2.0, 3.0]",3,40,1537,[3],[319]
3,"[1.0, 2.0, 9.0]",29,94,1538,"[1, 3, 2, 3]","[297, 279, 339, 221]"
2,"[2.0, 3.0, 1.0]",7,52,4642,"[2, 1, 3, 2]","[1534, 1238, 20, 1197]"
3,"[4.0, 6.0, 10.0]",23,52,1312,"[1, 3, 2]","[219, 398, 358]"
1,"[4.0, 2.0, 3.0]",2,29,1323,"[1, 2, 3, 1]","[179, 219, 458, 60]"
1,"[8.0, 2.0, 6.0]",25,73,1734,"[1, 3, 2, 1]","[476, 321, 319, 179]"
1,"[4.0, 1.0, 2.0]",30,80,1564,"[3, 2, 1]","[339, 317, 459]"
2,"[5.0, 6.0, 2.0]",6,60,3479,"[1, 3, 1, 3, 2]","[398, 738, 499, 677, 658]"
1,"[6.0, 1.0, 7.0]",23,11,2387,"[1, 2, 3, 1]","[697, 379, 897, 60]"
3,"[2.0, 6.0, 5.0]",24,49,3136,"[1, 3, 2, 3]","[538, 459, 938, 798]"
2,"[1.0, 8.0, 6.0]",15,28,1598,"[1, 3, 2]","[259, 458, 579]"
2,"[1.0, 5.0, 2.0]",21,82,2055,"[1, 3, 2, 3, 1, 2]","[199, 159, 378, 379, 319, 81]"
2,"[7.0, 9.0, 2.0]",27,27,790,[2],[537]
2,"[1.0, 3.0, 2.0]",2,24,4202,"[1, 2, 3, 1, 2, 1, 2, 3, 2]","[239, 279, 658, 339, 359, 638, 280, 558, 79]"
1,"[10.0, 4.0, 7.0]",23,18,3433,"[3, 1, 2, 3, 1]","[120, 954, 378, 359, 1258]"
1,"[4.0, 2.0, 3.0]",3,62,2993,[3],[1275]
3,"[8.0, 2.0, 6.0]",5,52,3160,"[2, 1, 3, 1, 3, 2]","[239, 659, 418, 698, 188, 279]"
2,"[6.0, 7.0, 4.0]",13,14,3592,"[1, 3, 1, 3, 1, 2, 3, 1, 2]","[120, 99, 219, 200, 179, 479, 398, 538, 541]"
1,"[4.0, 3.0, 2.0]",3,86,1703,"[3, 2]","[180, 718]"
3,"[1.0, 6.0, 5.0]",24,37,2721,"[1, 2, 3, 1, 3]","[366, 599, 358, 735, 279]"
2,"[2.0, 1.0, 6.0]",12,49,1521,"[2, 1, 3, 2, 3, 2]","[139, 179, 132, 159, 240, 280]"
1,"[9.0, 5.0, 3.0]",18,46,3620,"[1, 3, 2, 1]","[1253, 519, 538, 955]"
1,"[3.0, 2.0, 1.0]",6,23,3345,"[2, 3, 2, 1, 2, 3, 2, 1]","[200, 459, 418, 439, 278, 478, 259, 159]"
1,"[4.0, 6.0, 1.0]",27,42,936,[1],[538]
3,"[2.0, 1.0, 4.0]",14,40,1748,"[2, 1, 3]","[339, 278, 758]"
2,"[2.0, 6.0, 3.0]",5,8,2518,"[1, 3, 2, 1, 3]","[578, 378, 498, 360, 222]"
2,"[3.0, 4.0, 8.0]",8,68,2308,"[2, 3, 1, 2]","[399, 298, 419, 737]"
1,"[8.0, 6.0, 4.0]",25,7,6141,"[1, 2, 3, 2, 1, 3, 2, 1]","[716, 419, 378, 1295, 1353, 102, 957, 399]"
3,"[6.0, 4.0, 5.0]",16,33,7679,"[1, 3, 2, 1, 3, 2, 1, 3]","[816, 698, 558, 458, 2572, 1695, 239, 100]"
3,"[2.0, 6.0, 5.0]",23,60,1631,"[1, 3, 2]","[361, 558, 376]"
2,"[7.0, 5.0, 1.0]",24,30,3114,"[2, 3, 1, 2]","[637, 478, 438, 1198]"
3,"[5.0, 1.0, 7.0]",20,31,2171,"[1, 3, 1, 2, 3, 2, 3]","[215, 199, 259, 179, 327, 299, 126]"
3,"[3.0, 1.0, 9.0]",19,50,723,[3],[448]
2,"[2.0, 10.0, 8.0]",22,65,917,"[2, 3]","[438, 140]"
2,"[5.0, 10.0, 4.0]",20,9,3708,"[3, 1, 2, 1, 3]","[278, 270, 2188, 75, 101]"
3,"[10.0, 6.0, 4.0]",27,76,1757,"[2, 3]","[417, 1020]"
1,"[4.0, 5.0, 1.0]",20,55,1991,"[1, 3, 2, 1]","[434, 400, 244, 312]"
2,"[8.0, 9.0, 5.0]",18,34,5687,"[2, 1, 3, 2, 1, 2]","[856, 480, 618, 1057, 478, 1737]"
3,"[4.0, 6.0, 7.0]",29,4,2583,"[1, 2, 3, 1, 3]","[178, 190, 617, 598, 539]"
2,"[2.0, 8.0, 6.0]",5,75,1380,"[3, 1, 2]","[278, 419, 341]"
2,"[4.0, 2.0, 1.0]",11,89,2405,"[1, 3, 2, 1, 2, 3, 1]","[159, 179, 300, 358, 617, 199, 59]"
2,"[2.0, 3.0, 1.0]",4,6,3266,"[1, 3, 2, 3, 1, 2]","[379, 359, 538, 256, 598, 738]"
1,"[4.0, 1.0, 3.0]",3,64,1604,"[3, 2]","[542, 517]"
1,"[3.0, 2.0, 1.0]",1,74,1521,"[3, 2, 1, 3, 2]","[199, 239, 220, 259, 120]"
3,"[1.0, 4.0, 8.0]",19,76,1229,"[2, 3, 1, 3]","[180, 181, 338, 179]"
2,"[4.0, 6.0, 9.0]",16,37,16936,"[3, 1, 2, 1, 3, 1, 2, 1, 3, 2]","[417, 757, 1255, 3211, 935, 3329, 479, 2810, 478, 2492]"
3,"[1.0, 2.0, 3.0]",11,82,2502,"[1, 3, 2, 1, 3, 2]","[140, 119, 339, 419, 419, 599]"
2,"[1.0, 3.0, 2.0]",1,72,1230,"[1, 2, 3, 2]","[159, 259, 239, 120]"
1,"[6.0, 3.0, 5.0]",26,93,1793,"[2, 1, 3, 1]","[357, 458, 239, 419]"
1,"[2.0, 3.0, 1.0]",30,2,1506,"[1, 3, 2]","[696, 240, 140]"
3,"[1.0, 2.0, 3.0]",12,53,1246,"[2, 3, 2, 1, 3]","[80, 140, 99, 260, 219]"
1,"[9.0, 10.0, 6.0]",27,13,1481,"[3, 1]","[417, 739]"
3,"[4.0, 3.0, 2.0]",10,3,6711,"[2, 1, 3, 2, 1, 3]","[179, 498, 1535, 1036, 1316, 1674]"
3,"[5.0, 3.0, 6.0]",28,77,1294,"[2, 1, 3, 2]","[259, 179, 498, 20]"
2,"[4.0, 8.0, 3.0]",26,2,3593,"[2, 3, 1, 3, 2]","[160, 240, 439, 718, 1415]"
2,"[2.0, 7.0, 6.0]",13,17,2181,"[2, 1, 3, 2]","[358, 180, 438, 637]"
3,"[2.0, 1.0, 4.0]",14,77,1330,"[1, 2, 3, 1]","[140, 420, 271, 20]"
1,"[9.0, 2.0, 3.0]",27,67,844,"[1, 3]","[458, 119]"
1,"[4.0, 2.0, 3.0]",3,91,2051,[1],[340]
2,"[2.0, 3.0, 5.0]",25,45,8694,"[1, 2, 3, 1, 2, 1, 2, 3, 2, 1]","[359, 817, 1455, 880, 1415, 419, 737, 658, 498, 638]"
1,"[3.0, 2.0, 1.0]",11,53,1200,"[3, 1, 2]","[159, 339, 259]"
2,"[4.0, 5.0, 3.0]",18,13,2399,"[1, 3, 2]","[596, 358, 1159]"
3,"[2.0, 3.0, 9.0]",26,64,3323,"[2, 3, 2, 1, 3, 2, 3]","[99, 299, 358, 378, 498, 617, 539]"
1,"[4.0, 3.0, 1.0]",14,22,1819,"[1, 3, 2, 1, 3, 1]","[319, 258, 359, 279, 159, 21]"
2,"[5.0, 2.0, 1.0]",2,38,3113,"[2, 1, 2, 3, 1, 2]","[179, 598, 239, 199, 837, 659]"
2,"[4.0, 7.0, 1.0]",9,79,750,"[2, 1]","[338, 179]"
1,"[8.0, 6.0, 2.0]",2,66,1725,"[2, 1, 3, 1]","[279, 736, 338, 20]"
2,"[2.0, 3.0, 4.0]",5,31,4259,"[1, 3, 2, 1, 2, 3, 1, 2, 1]","[238, 458, 279, 1017, 277, 379, 558, 200, 259]"
3,"[3.0, 7.0, 6.0]",23,6,3354,"[2, 1, 3]","[1056, 757, 1218]"
2,"[5.0, 10.0, 6.0]",25,65,2803,"[2, 1, 3, 2]","[299, 359, 717, 1057]"
1,"[7.0, 6.0, 3.0]",25,23,10023,"[2, 1, 3, 2, 1, 2, 1]","[607, 2509, 657, 2531, 598, 1395, 1256]"
2,"[2.0, 6.0, 4.0]",2,9,1251,"[1, 2, 3, 1]","[219, 180, 260, 160]"
3,"[7.0, 1.0, 3.0]",1,88,1101,"[3, 1, 2, 3]","[199, 239, 259, 82]"
1,"[7.0, 3.0, 4.0]",16,62,14056,"[2, 1, 3, 1, 3, 1, 3, 2, 1, 3]","[618, 479, 1475, 5483, 758, 478, 837, 2172, 877, 81]"
2,"[5.0, 3.0, 1.0]",10,83,1656,"[2, 3, 1, 2]","[239, 299, 498, 240]"
3,"[7.0, 5.0, 9.0]",18,25,1903,"[2, 1, 3]","[557, 239, 758]"
2,"[2.0, 6.0, 4.0]",24,84,1425,"[2, 3, 1, 2]","[538, 199, 239, 139]"
2,"[1.0, 3.0, 2.0]",1,60,1458,"[2, 3, 1, 2]","[220, 199, 199, 579]"
3,"[5.0, 1.0, 3.0]",14,32,3801,"[2, 1, 3, 1, 3, 1, 3]","[637, 504, 199, 159, 179, 439, 1276]"
1,"[6.0, 4.0, 3.0]",27,30,1309,"[2, 1]","[398, 518]"
1,"[5.0, 1.0, 4.0]",29,70,4154,"[3, 2, 1, 3, 1]","[436, 578, 1376, 621, 698]"
3,"[3.0, 1.0, 6.0]",6,83,1375,"[2, 1, 3]","[199, 280, 499]"
3,"[3.0, 1.0, 9.0]",15,99,1018,"[3, 1, 3]","[259, 339, 60]"
3,"[7.0, 2.0, 6.0]",9,26,999,[3],[619]
1,"[10.0, 3.0, 6.0]",13,56,1514,"[2, 1, 3, 1]","[338, 360, 199, 162]"
2,"[6.0, 7.0, 3.0]",30,91,1498,"[3, 1, 2, 3]","[159, 200, 558, 221]"
1,"[3.0, 2.0, 1.0]",10,69,1912,"[3, 1, 2, 1]","[318, 279, 438, 458]"
2,"[4.0, 8.0, 5.0]",24,22,5028,"[2, 1, 3, 2, 3, 1, 2]","[338, 219, 359, 1436, 560, 220, 1315]"
3,"[6.0, 5.0, 3.0]",28,7,2943,"[2, 3, 1, 2, 3, 1, 3]","[219, 575, 281, 517, 436, 159, 199]"
1,"[6.0, 2.0, 7.0]",8,45,1869,"[1, 3, 1]","[418, 518, 578]"
2,"[8.0, 10.0, 4.0]",20,65,1467,"[3, 1]","[186, 175]"
3,"[7.0, 2.0, 8.0]",27,93,1309,"[2, 1, 3]","[220, 280, 439]"
3,"[3.0, 4.0, 7.0]",8,62,2173,"[2, 1, 3]","[199, 897, 696]"
2,"[7.0, 9.0, 2.0]",22,69,1816,"[2, 3, 2, 1, 2]","[119, 379, 538, 239, 100]"
1,"[4.0, 5.0, 2.0]",20,13,4641,"[2, 1, 3, 2, 1]","[115, 192, 512, 1672, 100]"
3,"[4.0, 1.0, 2.0]",17,74,2953,"[3, 2, 3, 1, 3]","[299, 715, 560, 558, 220]"
1,"[4.0, 2.0, 7.0]",8,5,4962,"[1, 3, 2, 1, 3, 1]","[559, 717, 897, 1057, 976, 319]"
2,"[5.0, 10.0, 6.0]",23,33,1738,"[1, 2, 3, 1]","[217, 817, 239, 100]"
1,"[3.0, 2.0, 1.0]",30,78,1777,"[3, 2, 1, 2]","[279, 279, 459, 399]"
3,"[3.0, 5.0, 7.0]",28,47,5085,"[2, 1, 3, 2, 1, 3, 2]","[199, 279, 597, 280, 1588, 1415, 60]"
2,"[3.0, 5.0, 2.0]",21,75,2154,"[2, 1, 3, 1, 2]","[199, 198, 738, 398, 240]"
3,"[2.0, 3.0, 5.0]",21,4,7992,"[2, 1, 3, 2, 3, 1, 2, 3]","[538, 632, 897, 896, 559, 1993, 1953, 39]"
2,"[6.0, 10.0, 7.0]",23,82,1868,"[1, 2, 3]","[358, 678, 459]"
3,"[1.0, 2.0, 3.0]",1,67,1297,"[1, 3, 2, 3]","[119, 259, 398, 121]"
2,"[7.0, 10.0, 5.0]",28,93,1073,"[1, 3]","[436, 238]"
3,"[6.0, 5.0, 9.0]",30,49,1483,"[2, 1, 3]","[160, 319, 558]"
3,"[1.0, 2.0, 4.0]",14,85,1501,"[2, 1, 3, 2]","[199, 293, 479, 220]"
1,"[7.0, 3.0, 2.0]",11,15,1487,"[3, 1, 2, 3]","[80, 537, 199, 299]"
1,"[8.0, 2.0, 3.0]",22,91,2704,"[2, 1, 3, 2, 3]","[179, 918, 193, 359, 658]"
3,"[1.0, 4.0, 7.0]",21,20,5719,"[2, 1, 3, 2, 1, 3, 1, 3]","[219, 218, 379, 598, 476, 2711, 239, 259]"
3,"[6.0, 3.0, 10.0]",27,53,1079,"[2, 3, 1]","[279, 300, 180]"
3,"[1.0, 3.0, 2.0]",1,48,908,"[2, 3, 1]","[140, 239, 119]"
2,"[5.0, 8.0, 7.0]",20,39,1748,"[3, 1, 2]","[194, 202, 65]"
3,"[3.0, 1.0, 10.0]",4,15,1012,"[1, 3]","[160, 598]"
2,"[2.0, 7.0, 4.0]",11,11,1919,"[3, 1, 3, 2, 3, 2]","[59, 279, 158, 499, 180, 260]"
3,"[2.0, 3.0, 4.0]",2,97,2560,"[3, 2, 1, 3, 2, 3]","[239, 458, 239, 279, 677, 218]"
1,"[4.0, 6.0, 1.0]",8,92,3274,"[2, 1, 2, 1]","[617, 657, 1137, 380]"
2,"[3.0, 7.0, 10.0]",27,29,1883,"[3, 2, 1, 3, 2]","[319, 259, 459, 120, 319]"
1,"[4.0, 3.0, 2.0]",3,53,983,[1],[20]
1,"[5.0, 1.0, 4.0]",29,79,2140,"[3, 2, 1, 3]","[377, 399, 777, 161]"
2,"[4.0, 8.0, 1.0]",30,47,1854,"[3, 2, 1, 3, 2]","[179, 339, 339, 234, 140]"
2,"[2.0, 8.0, 1.0]",11,10,2302,"[2, 1, 3, 1, 2]","[198, 276, 280, 200, 898]"
1,"[10.0, 2.0, 9.0]",23,20,1354,"[1, 2, 3]","[478, 399, 99]"
2,"[1.0, 6.0, 2.0]",1,13,1274,"[3, 2, 1]","[179, 279, 259]"
3,"[3.0, 2.0, 4.0]",3,14,1389,"[1, 3]","[359, 499]"
2,"[4.0, 7.0, 2.0]",9,11,727,"[3, 1]","[418, 39]"
1,"[1.0, 2.0, 3.0]",12,33,973,"[2, 1, 2, 3]","[80, 160, 180, 159]"
2,"[1.0, 6.0, 4.0]",21,43,1864,"[1, 3, 2, 3, 2]","[258, 258, 420, 279, 239]"
1,"[4.0, 7.0, 5.0]",20,10,1800,"[1, 3, 1, 2]","[333, 199, 299, 220]"
1,"[7.0, 2.0, 3.0]",16,21,5244,"[1, 3, 2, 1, 2, 1]","[497, 478, 1096, 618, 1973, 140]"
3,"[6.0, 2.0, 3.0]",2,58,1313,"[1, 3, 2, 3]","[121, 278, 299, 60]"
3,"[3.0, 2.0, 4.0]",21,69,2101,"[1, 3, 2, 1, 3]","[378, 138, 419, 319, 337]"
2,"[4.0, 7.0, 1.0]",24,70,3014,"[1, 3, 2, 1, 3, 2]","[279, 339, 858, 359, 578, 160]"
3,"[6.0, 1.0, 3.0]",22,79,1216,"[2, 3, 1, 3]","[79, 179, 419, 159]"
1,"[8.0, 5.0, 2.0]",28,92,1074,"[2, 1, 3, 2]","[159, 219, 258, 59]"
1,"[8.0, 2.0, 1.0]",11,62,919,"[2, 1, 3]","[136, 258, 161]"
2,"[8.0, 4.0, 2.0]",17,53,1719,"[2, 3, 1, 2]","[20, 138, 140, 639]"
3,"[1.0, 6.0, 9.0]",7,81,2228,"[1, 3]","[338, 1415]"
2,"[1.0, 7.0, 3.0]",12,70,1099,"[3, 2, 1, 2]","[179, 202, 279, 42]"
1,"[5.0, 3.0, 2.0]",16,25,2997,"[1, 3, 2, 1]","[1395, 597, 499, 140]"
1,"[5.0, 7.0, 2.0]",4,11,1457,"[2, 1, 3, 1]","[279, 242, 319, 260]"
3,"[3.0, 5.0, 6.0]",5,93,1514,"[2, 1, 3]","[359, 239, 440]"
3,"[5.0, 4.0, 8.0]",19,57,1075,"[3, 1, 2]","[219, 179, 225]"
2,"[5.0, 8.0, 2.0]",28,91,1849,"[2, 1, 3, 2, 1, 2]","[198, 201, 359, 281, 319, 23]"
3,"[1.0, 6.0, 3.0]",25,10,4317,"[1, 3, 2, 1, 3]","[856, 416, 919, 1173, 558]"
1,"[4.0, 3.0, 7.0]",25,95,4650,"[2, 1, 3, 1, 3, 2, 1]","[179, 619, 557, 1692, 578, 380, 140]"
1,"[5.0, 2.0, 1.0]",2,56,1629,"[3, 2, 1]","[319, 359, 578]"
3,"[4.0, 7.0, 10.0]",19,68,847,"[3, 2]","[458, 139]"
3,"[6.0, 2.0, 7.0]",28,31,1566,"[3, 1, 2, 3]","[458, 278, 358, 20]"
1,"[4.0, 3.0, 2.0]",21,76,3287,"[2, 1, 3, 1, 2, 3, 1]","[159, 198, 799, 439, 279, 419, 617]"
3,"[2.0, 4.0, 5.0]",21,24,3230,"[1, 3, 2, 1, 3]","[259, 438, 319, 1096, 660]"
3,"[1.0, 3.0, 2.0]",1,93,974,"[3, 2, 1]","[358, 278, 20]"
1,"[4.0, 3.0, 2.0]",17,28,2153,"[2, 1, 3, 2, 1]","[98, 259, 259, 498, 199]"
1,"[1.0, 4.0, 6.0]",25,24,7199,"[2, 1, 3, 2, 1]","[755, 1075, 519, 3069, 1160]"
1,"[7.0, 2.0, 3.0]",21,16,2933,"[1, 3, 2, 1, 3, 1]","[259, 279, 578, 399, 537, 519]"
1,"[9.0, 1.0, 2.0]",29,39,1783,"[1, 3, 2, 1]","[537, 279, 399, 176]"
1,"[6.0, 5.0, 1.0]",6,93,1393,"[2, 1]","[219, 857]"
1,"[10.0, 1.0, 2.0]",13,62,1180,"[2, 1, 3]","[198, 319, 81]"
1,"[9.0, 7.0, 4.0]",23,59,2541,"[1, 2, 3, 1]","[518, 538, 897, 239]"
3,"[5.0, 10.0, 9.0]",19,77,1129,"[2, 3]","[219, 596]"
3,"[1.0, 2.0, 5.0]",29,34,6116,"[3, 1, 2, 3, 1, 2, 3, 1, 3]","[338, 279, 698, 597, 1096, 977, 732, 697, 81]"
2,"[2.0, 3.0, 8.0]",8,33,4458,"[2, 1, 3, 2]","[818, 758, 856, 1634]"
2,"[4.0, 5.0, 1.0]",14,8,3081,"[2, 1, 2, 1, 3, 2, 1, 3, 1]","[179, 379, 199, 299, 142, 878, 192, 219, 80]"
1,"[3.0, 6.0, 1.0]",1,19,1047,"[3, 1, 3, 2, 1]","[199, 159, 179, 140, 20]"
1,"[10.0, 9.0, 1.0]",23,57,1680,"[2, 3, 1, 2]","[278, 299, 616, 100]"
1,"[6.0, 3.0, 5.0]",28,37,1104,"[2, 1, 3, 2]","[160, 239, 299, 20]"
3,"[1.0, 9.0, 6.0]",23,45,2225,"[1, 3, 2, 1, 3]","[209, 598, 399, 478, 182]"
3,"[4.0, 3.0, 6.0]",29,30,3943,"[3, 2, 1, 2, 3]","[776, 478, 1036, 419, 698]"
1,"[2.0, 3.0, 1.0]",8,97,925,"[2, 3]","[219, 299]"
3,"[5.0, 6.0, 7.0]",28,55,1988,"[2, 1, 3, 1, 2]","[218, 199, 338, 458, 237]"
2,"[4.0, 1.0, 2.0]",12,30,1322,"[2, 1, 3, 2]","[219, 199, 176, 259]"
3,"[2.0, 6.0, 3.0]",9,89,938,"[1, 3, 2]","[159, 233, 260]"
3,"[1.0, 4.0, 3.0]",10,89,1632,"[1, 2, 3]","[319, 379, 538]"
2,"[1.0, 7.0, 4.0]",22,48,1280,"[1, 2, 3, 2]","[199, 339, 338, 20]"
2,"[3.0, 8.0, 7.0]",28,58,1558,"[3, 2]","[217, 880]"
1,"[9.0, 3.0, 4.0]",15,31,1274,"[1, 3, 1]","[263, 323, 279]"
3,"[3.0, 2.0, 1.0]",2,59,2745,"[1, 3, 2, 1, 3]","[218, 299, 518, 318, 798]"
1,"[3.0, 2.0, 1.0]",14,62,1867,"[1, 3, 1, 2, 1]","[359, 359, 438, 259, 20]"
1,"[7.0, 5.0, 3.0]",28,64,1518,"[2, 1, 3, 1]","[256, 242, 453, 240]"
2,"[2.0, 5.0, 4.0]",7,62,3251,"[2, 3, 1, 2]","[1415, 558, 816, 121]"
2,"[9.0, 7.0, 2.0]",19,94,983,"[3, 1, 2, 1]","[220, 22, 259, 80]"
2,"[4.0, 10.0, 5.0]",23,9,2379,"[3, 2, 1]","[518, 1037, 498]"
1,"[6.0, 4.0, 7.0]",9,68,1009,"[2, 1, 3]","[199, 239, 278]"
2,"[1.0, 10.0, 4.0]",17,72,879,"[2, 1]","[40, 159]"
2,"[4.0, 8.0, 1.0]",20,91,1707,"[1, 2]","[81, 337]"
2,"[2.0, 4.0, 1.0]",17,13,2054,"[2, 3, 2, 1]","[558, 260, 518, 297]"
2,"[1.0, 2.0, 5.0]",20,43,3419,"[3, 2, 3, 1, 3, 2]","[102, 665, 170, 339, 378, 359]"
3,"[3.0, 5.0, 6.0]",5,68,2377,"[1, 3, 2, 3]","[697, 380, 598, 201]"
3,"[1.0, 2.0, 5.0]",14,17,1073,"[2, 1, 3]","[159, 259, 299]"
3,"[1.0, 4.0, 2.0]",29,59,4674,"[1, 3, 2, 1, 3, 2, 3]","[321, 680, 647, 698, 1016, 498, 280]"
2,"[1.0, 5.0, 2.0]",29,28,3985,"[2, 3, 1, 3, 2, 3, 2]","[416, 159, 478, 579, 434, 220, 1057]"
2,"[2.0, 6.0, 3.0]",5,18,2310,"[3, 1, 2, 1, 3]","[338, 379, 379, 779, 40]"
2,"[2.0, 4.0, 5.0]",21,91,3369,"[1, 3, 2, 3, 2, 3, 1]","[299, 279, 558, 1216, 319, 240, 19]"
3,"[3.0, 2.0, 9.0]",10,16,965,"[2, 3, 1]","[199, 239, 258]"
3,"[2.0, 1.0, 3.0]",12,86,1843,"[1, 3, 2, 3]","[240, 179, 419, 637]"
3,"[2.0, 1.0, 6.0]",2,33,1533,"[2, 1, 3]","[280, 359, 578]"
